operationc,operationb,operationa,correctresponse,valuey,operationd,condition,valuex,Rule,Operatora,Length,Intermediate,CorrectResponse,Result,Y,X,Operatorc,Operatorb,Operatord,Structure,practice_trials.thisRepN,practice_trials.thisTrialN,practice_trials.thisN,practice_trials.thisIndex,block.thisRepN,block.thisTrialN,block.thisN,block.thisIndex,practice_encoding.keys,practice_encoding.rt,practice_execution.keys,practice_execution.corr,practice_execution.rt,encoding.keys,encoding.rt,execution.keys,execution.corr,execution.rt,date,frameRate,expName,session,participant,
ADD,triple ,half,8,2,0,3,4,,,,,,,,,,,,,0,0,0,3,,,,,['space'],[6.28855248799664],8,1,13.4455584554,,,,,,2015_Jul_08_1336,357.524927026,KRITL,001,31010,
increase,DIVIDE,triple,3,3,0,3,2,,,,,,,,,,,,,0,1,1,4,,,,,['space'],[13.149742691981373],3,1,2.90491357536,,,,,,2015_Jul_08_1336,357.524927026,KRITL,001,31010,
0,decrease,TIMES,8,3,0,2,3,,,,,,,,,,,,,0,2,2,1,,,,,['space'],[1.7389351051533595],8,1,1.3047283834,,,,,,2015_Jul_08_1336,357.524927026,KRITL,001,31010,
0,ADD,decrease,7,5,0,2,3,,,,,,,,,,,,,0,3,3,0,,,,,['space'],[6.653545936802402],7,1,1.86130073061,,,,,,2015_Jul_08_1336,357.524927026,KRITL,001,31010,
increase,DIVIDE,double,9,8,triple,4,8,,,,,,,,,,,,,0,4,4,5,,,,,['space'],[10.415236864006147],9,1,11.8932418962,,,,,,2015_Jul_08_1336,357.524927026,KRITL,001,31010,
0,ADD,half,7,5,0,2,4,,,,,,,,,,,,,0,5,5,2,,,,,['space'],[1.8722401281411294],7,1,1.69992536886,,,,,,2015_Jul_08_1336,357.524927026,KRITL,001,31010,
,,,,,,,,"('INCREASE', 'SUBTRACT', 'THIRD', 'x', 'y')",SUBTRACT,3,"(3, 1, 2)",2,2,2,9,third,increase,0,UBUxy,,,,,0,0,0,7,,,,,,space,9.21634815267,2,1,3.2354234042,2015_Jul_08_1336,357.524927026,KRITL,001,31010,
,,,,,,,,"('DECREASE', 'TRIPLE', 'DIVIDE', 'x', 'y')",triple,3,"(2, 6, 5)",5,5,4,8,DIVIDE,decrease,0,UUBxy,,,,,0,1,1,8,,,,,,space,9.28498312843,7,0,5.0308810682,2015_Jul_08_1336,357.524927026,KRITL,001,31010,
,,,,,,,,"('DIVIDE', 'DOUBLE', 'INCREASE', 'THIRD', 'x', 'y')",double,4,"(2, 3, 6, 2)",2,2,3,6,increase,DIVIDE,third,BUUUxy,,,,,0,2,2,10,,,,,,space,6.94984829109,2,1,3.86245287649,2015_Jul_08_1336,357.524927026,KRITL,001,31010,
,,,,,,,,"('SUBTRACT', 'INCREASE', 'x', 'y')",increase,2,"(6, 2)",2,2,4,5,0,SUBTRACT,0,BUxy,,,,,0,3,3,1,,,,,,space,1.05990200429,2,1,3.12759938583,2015_Jul_08_1336,357.524927026,KRITL,001,31010,
,,,,,,,,"('TRIPLE', 'DOUBLE', 'SUBTRACT', 'DECREASE', 'x', 'y')",double,4,"(4, 1, 2, 6)",6,6,3,5,SUBTRACT,triple,decrease,UUBUxy,,,,,0,4,4,15,,,,,,space,7.15758392238,6,1,4.4224399144,2015_Jul_08_1336,357.524927026,KRITL,001,31010,
,,,,,,,,"('TIMES', 'INCREASE', 'HALF', 'TRIPLE', 'x', 'y')",increase,4,"(6, 3, 4, 8)",8,8,2,2,half,TIMES,triple,BUUUxy,,,,,0,5,5,11,,,,,,space,8.86959741279,8,1,6.21493457543,2015_Jul_08_1336,357.524927026,KRITL,001,31010,
,,,,,,,,"('DOUBLE', 'TIMES', 'x', 'y')",TIMES,2,"(4, 8)",8,8,2,2,0,double,0,UBxy,,,,,0,6,6,3,,,,,,space,0.932900078129,8,1,2.74429958122,2015_Jul_08_1336,357.524927026,KRITL,001,31010,
,,,,,,,,"('DECREASE', 'TRIPLE', 'HALF', 'ADD', 'x', 'y')",triple,4,"(6, 3, 9, 8)",8,8,2,4,half,decrease,ADD,UUUBxy,,,,,0,7,7,16,,,,,,space,7.15801507884,8,1,3.75019513251,2015_Jul_08_1336,357.524927026,KRITL,001,31010,
,,,,,,,,"('ADD', 'THIRD', 'x', 'y')",third,2,"(1, 7)",7,7,6,3,0,ADD,0,BUxy,,,,,0,8,8,0,,,,,,space,0.756244326098,7,1,2.21325546055,2015_Jul_08_1336,357.524927026,KRITL,001,31010,
,,,,,,,,"('INCREASE', 'DIVIDE', 'TRIPLE', 'HALF', 'x', 'y')",DIVIDE,4,"(2, 6, 2, 3)",3,3,3,4,triple,increase,half,UBUUxy,,,,,0,9,9,12,,,,,,space,9.04528990653,3,1,8.01972985652,2015_Jul_08_1336,357.524927026,KRITL,001,31010,
,,,,,,,,"('TIMES', 'THIRD', 'DOUBLE', 'x', 'y')",third,3,"(6, 2, 4)",4,4,2,3,double,TIMES,0,BUUxy,,,,,0,10,10,5,,,,,,space,3.06033829355,4,1,1.94257064379,2015_Jul_08_1336,357.524927026,KRITL,001,31010,
,,,,,,,,"('TRIPLE', 'DECREASE', 'HALF', 'SUBTRACT', 'x', 'y')",decrease,4,"(4, 2, 1, 3)",3,3,5,9,half,triple,SUBTRACT,UUUBxy,,,,,0,11,11,17,,,,,,space,9.70125168827,3,1,3.54363594242,2015_Jul_08_1336,357.524927026,KRITL,001,31010,
,,,,,,,,"('INCREASE', 'ADD', 'TRIPLE', 'x', 'y')",ADD,3,"(6, 8, 9)",9,9,2,2,triple,increase,0,UBUxy,,,,,0,12,12,6,,,,,,space,4.99657470145,9,1,7.99225971496,2015_Jul_08_1336,357.524927026,KRITL,001,31010,
,,,,,,,,"('DIVIDE', 'TRIPLE', 'HALF', 'x', 'y')",triple,3,"(4, 12, 4)",4,4,3,8,half,DIVIDE,0,BUUxy,,,,,0,13,13,4,,,,,,space,2.81944741483,4,1,7.76603979027,2015_Jul_08_1336,357.524927026,KRITL,001,31010,
,,,,,,,,"('DOUBLE', 'ADD', 'x', 'y')",ADD,2,"(4, 8)",8,8,2,2,0,double,0,UBxy,,,,,0,14,14,2,,,,,,space,2.55066550366,8,1,1.87583686272,2015_Jul_08_1336,357.524927026,KRITL,001,31010,
,,,,,,,,"('THIRD', 'INCREASE', 'ADD', 'DOUBLE', 'x', 'y')",increase,4,"(16, 20, 21, 7)",7,7,4,8,ADD,third,double,UUBUxy,,,,,0,15,15,14,,,,,,space,8.14867609303,7,1,8.98286529473,2015_Jul_08_1336,357.524927026,KRITL,001,31010,
,,,,,,,,"('THIRD', 'INCREASE', 'SUBTRACT', 'x', 'y')",increase,3,"(2, 3, 1)",1,1,6,8,SUBTRACT,third,0,UUBxy,,,,,0,16,16,9,,,,,,space,3.69920848572,1,1,2.79149205115,2015_Jul_08_1336,357.524927026,KRITL,001,31010,
,,,,,,,,"('THIRD', 'TIMES', 'HALF', 'INCREASE', 'x', 'y')",TIMES,4,"(8, 4, 12, 4)",4,4,3,7,half,third,increase,UBUUxy,,,,,0,17,17,13,,,,,,space,8.02170256843,4,1,5.02897439856,2015_Jul_08_1336,357.524927026,KRITL,001,31010,
,,,,,,,,"('DOUBLE', 'ADD', 'INCREASE', 'THIRD', 'x', 'y')",ADD,4,"(1, 2, 4, 8)",8,8,2,3,increase,double,third,UBUUxy,,,,,0,0,0,12,,,,,,space,9.88650251014,8,1,3.4466493497,2015_Jul_08_1336,357.524927026,KRITL,001,31010,
,,,,,,,,"('DIVIDE', 'DECREASE', 'TRIPLE', 'x', 'y')",decrease,3,"(9, 8, 4)",4,4,2,3,triple,DIVIDE,0,BUUxy,,,,,0,1,1,5,,,,,,space,10.4999413148,4,1,3.78369975361,2015_Jul_08_1336,357.524927026,KRITL,001,31010,
,,,,,,,,"('SUBTRACT', 'DECREASE', 'TRIPLE', 'DOUBLE', 'x', 'y')",decrease,4,"(6, 18, 17, 8)",8,8,9,3,triple,SUBTRACT,double,BUUUxy,,,,,0,2,2,11,,,,,,space,7.81196240179,8,1,6.77464957416,2015_Jul_08_1336,357.524927026,KRITL,001,31010,
,,,,,,,,"('THIRD', 'HALF', 'ADD', 'x', 'y')",half,3,"(6, 3, 1)",1,1,3,3,ADD,third,0,UUBxy,,,,,0,3,3,9,,,,,,space,4.16526774646,1,1,0.9827749572,2015_Jul_08_1336,357.524927026,KRITL,001,31010,
,,,,,,,,"('ADD', 'HALF', 'THIRD', 'x', 'y')",half,3,"(2, 1, 9)",9,9,8,6,third,ADD,0,BUUxy,,,,,0,4,4,4,,,,,,space,1.95826713429,9,1,1.3953879262,2015_Jul_08_1336,357.524927026,KRITL,001,31010,
,,,,,,,,"('ADD', 'DOUBLE', 'DECREASE', 'THIRD', 'x', 'y')",double,4,"(2, 1, 2, 8)",8,8,6,6,decrease,ADD,third,BUUUxy,,,,,0,5,5,10,,,,,,space,6.56557530473,8,1,5.57439416528,2015_Jul_08_1336,357.524927026,KRITL,001,31010,
,,,,,,,,"('DIVIDE', 'INCREASE', 'x', 'y')",increase,2,"(4, 2)",2,2,2,3,0,DIVIDE,0,BUxy,,,,,0,6,6,0,,,,,,space,3.95711430404,2,1,2.07165649286,2015_Jul_08_1336,357.524927026,KRITL,001,31010,
,,,,,,,,"('THIRD', 'TIMES', 'DOUBLE', 'DECREASE', 'x', 'y')",TIMES,4,"(1, 2, 6, 2)",2,2,3,2,double,third,decrease,UBUUxy,,,,,0,7,7,13,,,,,,space,7.89430130925,2,1,3.12507677835,2015_Jul_08_1336,357.524927026,KRITL,001,31010,
,,,,,,,,"('HALF', 'ADD', 'TRIPLE', 'x', 'y')",ADD,3,"(9, 12, 6)",6,6,3,3,triple,half,0,UBUxy,,,,,0,8,8,6,,,,,,space,2.21335982779,6,1,2.75762026271,2015_Jul_08_1336,357.524927026,KRITL,001,31010,
,,,,,,,,"('THIRD', 'INCREASE', 'DIVIDE', 'DOUBLE', 'x', 'y')",increse,4,"(18, 2, 3, 1)",1,1,9,9,DIVIDE,third,double,UUBUxy,,,,,0,9,9,15,,,,,,space,7.30091196435,1,1,2.9666986384,2015_Jul_08_1336,357.524927026,KRITL,001,31010,
,,,,,,,,"('THIRD', 'DOUBLE', 'ADD', 'DECREASE', 'x', 'y')",double,4,"(5, 12, 24, 8)",8,8,7,6,ADD,third,decrease,UUBUxy,,,,,0,10,10,14,,,,,,space,8.29346014353,8,1,7.55746682576,2015_Jul_08_1336,357.524927026,KRITL,001,31010,
,,,,,,,,"('INCREASE', 'TRIPLE', 'DIVIDE', 'x', 'y')",triple,3,"(2, 6, 7)",7,7,3,6,DIVIDE,increase,0,UUBxy,,,,,0,11,11,8,,,,,,space,2.23096743639,7,1,3.57280641451,2015_Jul_08_1336,357.524927026,KRITL,001,31010,
,,,,,,,,"('SUBTRACT', 'DECREASE', 'x', 'y')",decrease,2,"(5, 3)",3,3,2,6,0,SUBTRACT,0,BUxy,,,,,0,12,12,1,,,,,,space,0.949556405016,3,1,2.75707344682,2015_Jul_08_1336,357.524927026,KRITL,001,31010,
,,,,,,,,"('INCREASE', 'ADD', 'x', 'y')",ADD,2,"(5, 6)",6,6,2,3,0,increase,0,UBxy,,,,,0,13,13,3,,,,,,space,1.5434538986,6,1,1.28714027948,2015_Jul_08_1336,357.524927026,KRITL,001,31010,
,,,,,,,,"('HALF', 'TRIPLE', 'INCREASE', 'DIVIDE', 'x', 'y')",triple,4,"(3, 4, 12, 6)",6,6,3,9,increase,half,DIVIDE,UUUBxy,,,,,0,14,14,16,,,,,,space,4.80339025854,6,1,4.53463058959,2015_Jul_08_1336,357.524927026,KRITL,001,31010,
,,,,,,,,"('INCREASE', 'SUBTRACT', 'HALF', 'x', 'y')",SUBTRACT,3,"(4, 2, 3)",3,3,2,8,half,increase,0,UBUxy,,,,,0,15,15,7,,,,,,space,6.31111600061,3,1,4.23127951153,2015_Jul_08_1336,357.524927026,KRITL,001,31010,
,,,,,,,,"('THIRD', 'DOUBLE', 'INCREASE', 'TIMES', 'x', 'y')",double,4,"(8, 9, 18, 6)",6,6,4,2,increase,third,TIMES,UUUBxy,,,,,0,16,16,17,,,,,,space,5.6686654989,6,1,8.61437605671,2015_Jul_08_1336,357.524927026,KRITL,001,31010,
,,,,,,,,"('DECREASE', 'DIVIDE', 'x', 'y')",DIVIDE,2,"(2, 1)",1,1,4,8,0,decrease,0,UBxy,,,,,0,17,17,2,,,,,,space,0.693042606144,1,1,2.47160406969,2015_Jul_08_1336,357.524927026,KRITL,001,31010,
,,,,,,,,"('DIVIDE', 'DOUBLE', 'x', 'y')",double,2,"(12, 2)",2,2,6,6,0,DIVIDE,0,BUxy,,,,,0,0,0,1,,,,,,space,2.55815017453,2,1,2.83775034879,2015_Jul_08_1336,357.524927026,KRITL,001,31010,
,,,,,,,,"('ADD', 'THIRD', 'INCREASE', 'HALF', 'x', 'y')",third,4,"(2, 3, 1, 7)",7,7,6,4,increase,ADD,half,BUUUxy,,,,,0,1,1,10,,,,,,space,4.74274536481,7,1,3.0758366574,2015_Jul_08_1336,357.524927026,KRITL,001,31010,
,,,,,,,,"('DECREASE', 'HALF', 'TRIPLE', 'DIVIDE', 'x', 'y')",half,4,"(4, 12, 6, 5)",5,5,2,8,triple,decrease,DIVIDE,UUUBxy,,,,,0,2,2,16,,,,,,space,3.24115094138,5,1,4.82078023578,2015_Jul_08_1336,357.524927026,KRITL,001,31010,
,,,,,,,,"('SUBTRACT', 'HALF', 'TRIPLE', 'x', 'y')",half,3,"(12, 6, 2)",2,2,4,4,triple,SUBTRACT,0,BUUxy,,,,,0,3,3,5,,,,,,space,1.81491753447,2,1,8.6786980991,2015_Jul_08_1336,357.524927026,KRITL,001,31010,
,,,,,,,,"('DOUBLE', 'DECREASE', 'SUBTRACT', 'x', 'y')",decrease,3,"(5, 4, 8)",8,8,2,7,SUBTRACT,double,0,UUBxy,,,,,0,4,4,8,,,,,,space,3.10916642059,8,1,2.72658623659,2015_Jul_08_1336,357.524927026,KRITL,001,31010,
,,,,,,,,"('INCREASE', 'DIVIDE', 'THIRD', 'x', 'y')",DIVIDE,3,"(3, 1, 2)",2,2,3,9,third,increase,0,UBUxy,,,,,0,5,5,7,,,,,,space,3.58897615055,2,1,2.19772493106,2015_Jul_08_1336,357.524927026,KRITL,001,31010,
,,,,,,,,"('HALF', 'TIMES', 'x', 'y')",TIMES,2,"(16, 8)",8,8,4,4,0,half,0,UBxy,,,,,0,6,6,3,,,,,,space,0.902169230278,8,1,4.31022323298,2015_Jul_08_1336,357.524927026,KRITL,001,31010,
,,,,,,,,"('DECREASE', 'THIRD', 'TIMES', 'HALF', 'x', 'y')",third,4,"(2, 12, 4, 3)",3,3,6,4,TIMES,decrease,half,UUBUxy,,,,,0,7,7,14,,,,,,space,4.11746960433,3,1,7.23800931638,2015_Jul_08_1336,357.524927026,KRITL,001,31010,
,,,,,,,,"('DOUBLE', 'DECREASE', 'TRIPLE', 'DIVIDE', 'x', 'y')",decrease,4,"(1, 3, 2, 4)",4,4,4,4,triple,double,DIVIDE,UUUBxy,,,,,0,8,8,17,,,,,,space,5.68593502609,4,1,5.6865892889,2015_Jul_08_1336,357.524927026,KRITL,001,31010,
,,,,,,,,"('ADD', 'DOUBLE', 'x', 'y')",double,2,"(4, 8)",8,8,4,2,0,ADD,0,BUxy,,,,,0,9,9,0,,,,,,space,0.850765456707,8,1,1.6554023049,2015_Jul_08_1336,357.524927026,KRITL,001,31010,
,,,,,,,,"('DIVIDE', 'INCREASE', 'DOUBLE', 'THIRD', 'x', 'y')",increase,4,"(2, 4, 5, 1)",1,1,5,6,double,DIVIDE,third,BUUUxy,,,,,0,10,10,11,,,,,,space,4.30805650065,1,1,10.8221678068,2015_Jul_08_1336,357.524927026,KRITL,001,31010,
,,,,,,,,"('DOUBLE', 'TRIPLE', 'SUBTRACT', 'x', 'y')",triple,3,"(1, 3, 6)",6,6,3,4,SUBTRACT,double,0,UUBxy,,,,,0,11,11,9,,,,,,space,4.00501099622,6,1,2.34099001053,2015_Jul_08_1336,357.524927026,KRITL,001,31010,
,,,,,,,,"('DOUBLE', 'TRIPLE', 'DIVIDE', 'DECREASE', 'x', 'y')",triple,4,"(8, 1, 3, 6)",6,6,8,9,DIVIDE,double,decrease,UUBUxy,,,,,0,12,12,15,,,,,,space,7.65506935629,6,1,4.19987010557,2015_Jul_08_1336,357.524927026,KRITL,001,31010,
,,,,,,,,"('HALF', 'SUBTRACT', 'TRIPLE', 'x', 'y')",SUBTRACT,3,"(9, 2, 1)",1,1,7,3,triple,half,0,UBUxy,,,,,0,13,13,6,,,,,,space,3.17217240919,1,1,2.80755776211,2015_Jul_08_1336,357.524927026,KRITL,001,31010,
,,,,,,,,"('DECREASE', 'ADD', 'DOUBLE', 'THIRD', 'x', 'y')",ADD,4,"(3, 6, 10, 9)",9,9,4,9,double,decrease ,third,UBUUxy,,,,,0,14,14,12,,,,,,space,7.04510546735,9,1,3.81438303736,2015_Jul_08_1336,357.524927026,KRITL,001,31010,
,,,,,,,,"('DIVIDE', 'DOUBLE', 'THIRD', 'x', 'y')",double,3,"(2, 4, 1)",1,1,4,6,third,DIVIDE,0,BUUxy,,,,,0,15,15,4,,,,,,space,2.18146622626,1,1,3.09368311299,2015_Jul_08_1336,357.524927026,KRITL,001,31010,
,,,,,,,,"('DOUBLE', 'SUBTRACT', 'x', 'y')",SUBTRACT,2,"(1, 2)",2,2,7,8,0,double,0,UBxy,,,,,0,16,16,2,,,,,,space,1.18961918959,2,1,1.74862380675,2015_Jul_08_1336,357.524927026,KRITL,001,31010,
,,,,,,,,"('DECREASE', 'TIMES', 'DOUBLE', 'THIRD', 'x', 'y')",TIMES,4,"(1, 2, 8, 7)",7,7,4,3,double,decrease,third,UBUUxy,,,,,0,17,17,13,,,,,,space,5.91274385576,7,1,2.74175678464,2015_Jul_08_1336,357.524927026,KRITL,001,31010,
,,,,,,,,"('ADD', 'DECREASE', 'HALF', 'x', 'y')",decrease,3,"(3, 2, 6)",6,6,4,6,half,ADD,0,BUUxy,,,,,0,0,0,4,,,,,,space,2.4305004871,6,1,4.40728784449,2015_Jul_08_1336,357.524927026,KRITL,001,31010,
,,,,,,,,"('INCREASE', 'TIMES', 'x', 'y')",TIMES,2,"(8, 9)",9,9,4,2,0,increase,0,UBxy,,,,,0,1,1,2,,,,,,space,0.740815084166,9,1,1.15590514967,2015_Jul_08_1336,357.524927026,KRITL,001,31010,
,,,,,,,,"('DIVIDE', 'DECREASE', 'THIRD', 'DOUBLE', 'x', 'y')",decrease,4,"(12, 4, 3, 1)",1,1,3,6,third,DIVIDE,double,BUUUxy,,,,,0,2,2,10,,,,,,space,4.22999151715,1,1,5.03000164591,2015_Jul_08_1336,357.524927026,KRITL,001,31010,
,,,,,,,,"('DECREASE', 'HALF', 'DIVIDE', 'x', 'y')",half,3,"(4, 2, 1)",1,1,2,8,DIVIDE,decrease,0,UUBxy,,,,,0,3,3,8,,,,,,space,2.74297839461,1,1,3.8619693653,2015_Jul_08_1336,357.524927026,KRITL,001,31010,
,,,,,,,,"('TRIPLE', 'HALF', 'TIMES', 'x', 'y')",half,3,"(6, 3, 9)",9,9,3,2,TIMES,triple,0,UUBxy,,,,,0,4,4,9,,,,,,space,6.13278216025,9,1,6.05586829607,2015_Jul_08_1336,357.524927026,KRITL,001,31010,
,,,,,,,,"('DECREASE', 'DIVIDE', 'TRIPLE', 'DOUBLE', 'x', 'y')",DIVIDE,4,"(6, 18, 2, 1)",1,1,9,3,triple,decrease,double,UBUUxy,,,,,0,5,5,12,,,,,,space,5.06379609994,1,1,3.58943331326,2015_Jul_08_1336,357.524927026,KRITL,001,31010,
,,,,,,,,"('SUBTRACT', 'DOUBLE', 'DECREASE', 'x', 'y')",double,3,"(8, 16, 7)",7,7,9,9,decrease,SUBTRACT,0,BUUxy,,,,,0,6,6,5,,,,,,space,2.8376603534,7,1,10.8373814705,2015_Jul_08_1336,357.524927026,KRITL,001,31010,
,,,,,,,,"('DOUBLE', 'TIMES', 'THIRD', 'x', 'y')",TIMES,3,"(1, 4, 8)",8,8,4,3,third,double,0,UBUxy,,,,,0,7,7,6,,,,,,space,2.83783965977,8,1,2.08584325138,2015_Jul_08_1336,357.524927026,KRITL,001,31010,
,,,,,,,,"('DECREASE', 'HALF', 'TRIPLE', 'ADD', 'x', 'y')",half,4,"(4, 12, 6, 5)",5,5,2,2,triple,decrease,ADD,UUUBxy,,,,,0,8,8,16,,,,,,space,4.6453221406,None,0,,2015_Jul_08_1336,357.524927026,KRITL,001,31010,
,,,,,,,,"('INCREASE', 'TRIPLE', 'HALF', 'ADD', 'x', 'y')",triple,4,"(4, 2, 6, 7)",7,7,2,2,half,increase,ADD,UUUBxy,,,,,0,9,9,17,,,,,,space,8.13700030764,5,0,4.82260306951,2015_Jul_08_1336,357.524927026,KRITL,001,31010,
,,,,,,,,"('INCREASE', 'DIVIDE', 'HALF', 'x', 'y')",DIVIDE,3,"(2, 1, 2)",2,2,2,4,half,increase,0,UBUxy,,,,,0,10,10,7,,,,,,space,1.8135015619,2,1,2.34299009744,2015_Jul_08_1336,357.524927026,KRITL,001,31010,
,,,,,,,,"('THIRD', 'INCREASE', 'SUBTRACT', 'HALF', 'x', 'y')",increase,4,"(4, 2, 3, 1)",1,1,2,8,SUBTRACT,third,half,UUBUxy,,,,,0,11,11,15,,,,,,space,4.72807475296,1,1,9.71679077245,2015_Jul_08_1336,357.524927026,KRITL,001,31010,
,,,,,,,,"('SUBTRACT', 'THIRD', 'x', 'y')",third,2,"(3, 1)",1,1,2,9,0,SUBTRACT,0,BUxy,,,,,0,12,12,0,,,,,,space,0.821060829679,1,1,2.70981014404,2015_Jul_08_1336,357.524927026,KRITL,001,31010,
,,,,,,,,"('TIMES', 'THIRD', 'x', 'y')",third,2,"(1, 4)",4,4,4,3,0,TIMES,0,BUxy,,,,,0,13,13,1,,,,,,space,1.4113194996,4,1,2.38978734062,2015_Jul_08_1336,357.524927026,KRITL,001,31010,
,,,,,,,,"('INCREASE', 'HALF', 'TIMES', 'TRIPLE', 'x', 'y')",half,4,"(6, 12, 6, 7)",7,7,2,2,TIMES,increase,triple,UUBUxy,,,,,0,14,14,14,,,,,,space,3.87823833578,7,1,6.18321069898,2015_Jul_08_1336,357.524927026,KRITL,001,31010,
,,,,,,,,"('TIMES', 'DECREASE', 'THIRD', 'DOUBLE', 'x', 'y')",decrease,4,"(6, 2, 1, 2)",2,2,2,3,third,TIMES,double,BUUUxy,,,,,0,15,15,11,,,,,,space,6.27808565163,2,1,3.07602930904,2015_Jul_08_1336,357.524927026,KRITL,001,31010,
,,,,,,,,"('TRIPLE', 'SUBTRACT', 'INCREASE', 'HALF', 'x', 'y')",SUBTRACT,4,"(3, 4, 1, 3)",3,3,3,6,increase,triple,half,UBUUxy,,,,,0,16,16,13,,,,,,space,4.37260644004,2,0,11.8460668778,2015_Jul_08_1336,357.524927026,KRITL,001,31010,
,,,,,,,,"('TRIPLE', 'SUBTRACT', 'x', 'y')",SUBTRACT,2,"(2, 6)",6,6,6,8,0,triple,0,UBxy,,,,,0,17,17,3,,,,,,space,2.29399737818,6,1,2.0538641029,2015_Jul_08_1336,357.524927026,KRITL,001,31010,
,,,,,,,,"('INCREASE', 'TIMES', 'TRIPLE', 'HALF', 'x', 'y')",TIMES,4,"(1, 3, 6, 7)",7,7,2,2,triple,increase,half,UBUUxy,,,,,0,0,0,13,,,,,,space,7.79083231333,3,0,3.73250266135,2015_Jul_08_1336,357.524927026,KRITL,001,31010,
,,,,,,,,"('SUBTRACT', 'INCREASE', 'HALF', 'x', 'y')",increase,3,"(4, 5, 3)",3,3,2,8,half,SUBTRACT,0,BUUxy,,,,,0,1,1,5,,,,,,space,4.11640642723,3,1,4.35743110135,2015_Jul_08_1336,357.524927026,KRITL,001,31010,
,,,,,,,,"('DIVIDE', 'DOUBLE', 'INCREASE', 'TRIPLE', 'x', 'y')",double,4,"(9, 10, 20, 5)",5,5,4,3,increase,DIVIDE,triple,BUUUxy,,,,,0,2,2,10,,,,,,space,6.30818037261,5,1,3.3497944992,2015_Jul_08_1336,357.524927026,KRITL,001,31010,
,,,,,,,,"('DOUBLE', 'DIVIDE', 'x', 'y')",DIVIDE,2,"(1, 2)",2,2,8,8,0,dpuble,0,UBxy,,,,,0,3,3,2,,,,,,space,0.869716494111,2,1,4.11702578692,2015_Jul_08_1336,357.524927026,KRITL,001,31010,
,,,,,,,,"('ADD', 'HALF', 'x', 'y')",half,2,"(2, 7)",7,7,5,4,0,ADD,0,BUxy,,,,,0,4,4,0,,,,,,space,4.1654107809,7,1,2.77470979918,2015_Jul_08_1336,357.524927026,KRITL,001,31010,
,,,,,,,,"('DECREASE', 'THIRD', 'DOUBLE', 'ADD', 'x', 'y')",third,4,"(9, 18, 6, 5)",5,5,4,5,double,decrease,ADD,UUUBxy,,,,,0,5,5,16,,,,,,space,3.55707946932,5,1,2.8699437067,2015_Jul_08_1336,357.524927026,KRITL,001,31010,
,,,,,,,,"('DIVIDE', 'TRIPLE', 'DECREASE', 'x', 'y')",triple,3,"(6, 18, 9)",9,9,2,7,decrease,DIVIDE,0,BUUxy,,,,,0,6,6,4,,,,,,space,2.03794929667,9,1,6.3421866408,2015_Jul_08_1336,357.524927026,KRITL,001,31010,
,,,,,,,,"('HALF', 'SUBTRACT', 'DECREASE', 'TRIPLE', 'x', 'y')",SUBTRACT,4,"(15, 14, 10, 5)",5,5,4,5,decrease,half,triple,UBUUxy,,,,,0,7,7,12,,,,,,space,2.51806699554,5,1,11.6850145413,2015_Jul_08_1336,357.524927026,KRITL,001,31010,
,,,,,,,,"('TRIPLE', 'INCREASE', 'SUBTRACT', 'x', 'y')",increase,3,"(1, 2, 6)",6,6,2,3,SUBTRACT,triple,0,UUBxy,,,,,0,8,8,9,,,,,,space,3.62368664096,6,1,2.86939004707,2015_Jul_08_1336,357.524927026,KRITL,001,31010,
,,,,,,,,"('THIRD', 'INCREASE', 'HALF', 'TIMES', 'x', 'y')",increase,4,"(28, 14, 15, 5)",5,5,4,7,half,third,TIMES,UUUBxy,,,,,0,9,9,17,,,,,,space,5.17245676718,5,1,5.54123515377,2015_Jul_08_1336,357.524927026,KRITL,001,31010,
,,,,,,,,"('TRIPLE', 'DOUBLE', 'SUBTRACT', 'INCREASE', 'x', 'y')",double,4,"(5, 1, 2, 6)",6,6,4,4,SUBTRACT,triple,increase,UUBUxy,,,,,0,10,10,14,,,,,,space,4.87032524595,6,1,1.87688566791,2015_Jul_08_1336,357.524927026,KRITL,001,31010,
,,,,,,,,"('HALF', 'TIMES', 'DECREASE', 'x', 'y')",TIMES,3,"(8, 16, 8)",8,8,2,9,decrease,half,0,UBUxy,,,,,0,11,11,6,,,,,,space,3.22192683822,8,1,4.05549599591,2015_Jul_08_1336,357.524927026,KRITL,001,31010,
,,,,,,,,"('INCREASE', 'DIVIDE', 'x', 'y')",DIVIDE,2,"(4, 5)",5,5,2,8,0,increase,0,UBxy,,,,,0,12,12,3,,,,,,space,3.14157672549,5,1,1.89544626916,2015_Jul_08_1336,357.524927026,KRITL,001,31010,
,,,,,,,,"('INCREASE', 'DIVIDE', 'TRIPLE', 'x', 'y')",DIVIDE,3,"(6, 2, 3)",3,3,3,2,triple,increase,0,UBUxy,,,,,0,13,13,7,,,,,,space,3.87758338859,2,0,1.83016815444,2015_Jul_08_1336,357.524927026,KRITL,001,31010,
,,,,,,,,"('TIMES', 'HALF', 'INCREASE', 'THIRD', 'x', 'y')",half,4,"(1, 2, 1, 9)",9,9,9,3,increase,TIMES,third,BUUUxy,,,,,0,14,14,11,,,,,,space,4.11673663836,9,1,3.19060195258,2015_Jul_08_1336,357.524927026,KRITL,001,31010,
,,,,,,,,"('TRIPLE', 'INCREASE', 'DIVIDE', 'DOUBLE', 'x', 'y')",increase,4,"(16, 2, 3, 9)",9,9,8,8,DIVIDE,triple,double,UUBUxy,,,,,0,15,15,15,,,,,,space,6.10059735703,9,1,7.60555582741,2015_Jul_08_1336,357.524927026,KRITL,001,31010,
,,,,,,,,"('SUBTRACT', 'TRIPLE', 'x', 'y')",triple,2,"(12, 9)",9,9,3,4,0,SUBTRACT,0,BUxy,,,,,0,16,16,1,,,,,,space,0.75637093556,9,1,4.7102214536,2015_Jul_08_1336,357.524927026,KRITL,001,31010,
,,,,,,,,"('TRIPLE', 'HALF', 'ADD', 'x', 'y')",half,3,"(6, 3, 9)",9,9,3,3,ADD,triple,0,UUBxy,,,,,0,17,17,8,,,,,,space,4.03625375679,9,1,4.58452565776,2015_Jul_08_1336,357.524927026,KRITL,001,31010,
,,,,,,,,"('THIRD', 'TIMES', 'HALF', 'x', 'y')",TIMES,3,"(3, 18, 6)",6,6,6,6,half,third,0,UBUxy,,,,,0,0,0,7,,,,,,space,7.71043395213,6,1,3.49340689913,2015_Jul_08_1336,357.524927026,KRITL,001,31010,
,,,,,,,,"('TIMES', 'DOUBLE', 'x', 'y')",double,2,"(4, 8)",8,8,2,2,0,TIMES,0,BUxy,,,,,0,1,1,1,,,,,,space,3.3181243462,8,1,1.62290679524,2015_Jul_08_1336,357.524927026,KRITL,001,31010,
,,,,,,,,"('INCREASE', 'ADD', 'HALF', 'TRIPLE', 'x', 'y')",ADD,4,"(6, 3, 6, 7)",7,7,3,2,half,increase,triple,UBUUxy,,,,,0,2,2,13,,,,,,space,3.59090129836,8,0,12.6437720305,2015_Jul_08_1336,357.524927026,KRITL,001,31010,
,,,,,,,,"('DECREASE', 'TRIPLE', 'HALF', 'SUBTRACT', 'x', 'y')",triple,4,"(4, 2, 6, 5)",5,5,2,6,half,decrease,SUBTRACT,UUUBxy,,,,,0,3,3,16,,,,,,space,4.83757788621,5,1,8.9186808118,2015_Jul_08_1336,357.524927026,KRITL,001,31010,
,,,,,,,,"('DIVIDE', 'THIRD', 'x', 'y')",third,2,"(3, 1)",1,1,3,9,0,DIVIDE,0,BUxy,,,,,0,4,4,0,,,,,,space,1.03016418504,1,1,1.2857277288,2015_Jul_08_1336,357.524927026,KRITL,001,31010,
,,,,,,,,"('DOUBLE', 'DIVIDE', 'TRIPLE', 'INCREASE', 'x', 'y')",DIVIDE,4,"(5, 15, 3, 6)",6,6,5,4,triple,double,increase,UBUUxy,,,,,0,5,5,12,,,,,,space,6.5022524503,6,1,8.32843446065,2015_Jul_08_1336,357.524927026,KRITL,001,31010,
,,,,,,,,"('THIRD', 'DIVIDE', 'DECREASE', 'x', 'y')",DIVIDE,3,"(6, 3, 1)",1,1,2,7,decrease,third,0,UBUxy,,,,,0,6,6,6,,,,,,space,4.40351967391,1,1,2.90360641846,2015_Jul_08_1336,357.524927026,KRITL,001,31010,
,,,,,,,,"('DECREASE', 'TRIPLE', 'DIVIDE', 'DOUBLE', 'x', 'y')",triple,4,"(6, 2, 6, 5)",5,5,3,3,DIVIDE,decrease,double,UUBUxy,,,,,0,7,7,14,,,,,,space,5.07944502635,5,1,5.61978878125,2015_Jul_08_1336,357.524927026,KRITL,001,31010,
,,,,,,,,"('SUBTRACT', 'TRIPLE', 'DECREASE', 'DOUBLE', 'x', 'y')",triple,4,"(4, 3, 9, 1)",1,1,8,2,decrease,SUBTRACT,double,BUUUxy,,,,,0,8,8,11,,,,,,space,3.8936757902,1,1,6.96676194313,2015_Jul_08_1336,357.524927026,KRITL,001,31010,
,,,,,,,,"('DOUBLE', 'THIRD', 'TIMES', 'x', 'y')",third,3,"(12, 4, 8)",8,8,6,2,TIMES,double,0,UUBxy,,,,,0,9,9,9,,,,,,space,2.74056905124,8,1,4.13564490227,2015_Jul_08_1336,357.524927026,KRITL,001,31010,
,,,,,,,,"('DOUBLE', 'DECREASE', 'ADD', 'x', 'y')",decrease,3,"(4, 3, 6)",6,6,2,2,ADD,double,0,UUBxy,,,,,0,10,10,8,,,,,,space,1.63849310132,6,1,4.03730837919,2015_Jul_08_1336,357.524927026,KRITL,001,31010,
,,,,,,,,"('THIRD', 'DIVIDE', 'x', 'y')",DIVIDE,2,"(3, 1)",1,1,2,6,0,third,0,UBxy,,,,,0,11,11,3,,,,,,space,2.93183005729,1,1,4.6312770478,2015_Jul_08_1336,357.524927026,KRITL,001,31010,
,,,,,,,,"('HALF', 'TRIPLE', 'INCREASE', 'SUBTRACT', 'x', 'y')",triple,4,"(1, 2, 6, 3)",3,3,2,3,increase,half,SUBTRACT,UUUBxy,,,,,0,12,12,17,,,,,,space,3.17353636926,3,1,5.19175854692,2015_Jul_08_1336,357.524927026,KRITL,001,31010,
,,,,,,,,"('TIMES', 'HALF', 'INCREASE', 'x', 'y')",half,3,"(6, 3, 9)",9,9,3,5,increase,TIMES,0,BUUxy,,,,,0,13,13,5,,,,,,space,2.45308008252,9,1,9.34922441456,2015_Jul_08_1336,357.524927026,KRITL,001,31010,
,,,,,,,,"('INCREASE', 'SUBTRACT', 'x', 'y')",SUBTRACT,2,"(3, 4)",4,4,3,6,0,increase,0,UBxy,,,,,0,14,14,2,,,,,,space,1.59221495682,4,1,1.9578695122,2015_Jul_08_1336,357.524927026,KRITL,001,31010,
,,,,,,,,"('SUBTRACT', 'DOUBLE', 'TRIPLE', 'DECREASE', 'x', 'y')",double,4,"(2, 6, 12, 8)",8,8,4,3,triple,SUBTRACT,decrease,BUUUxy,,,,,0,15,15,10,,,,,,space,3.81412571223,8,1,3.60774719721,2015_Jul_08_1336,357.524927026,KRITL,001,31010,
,,,,,,,,"('THIRD', 'DECREASE', 'TIMES', 'HALF', 'x', 'y')",decrease,4,"(4, 16, 15, 5)",5,5,4,8,TIMES,third,half,UUBUxy,,,,,0,16,16,15,,,,,,space,6.89862895667,5,1,4.51897995223,2015_Jul_08_1336,357.524927026,KRITL,001,31010,
,,,,,,,,"('SUBTRACT', 'TRIPLE', 'DECREASE', 'x', 'y')",triple,3,"(4, 12, 3)",3,3,9,5,decrease,SUBTRACT,0,BUUxy,,,,,0,17,17,4,,,,,,space,2.40588932351,3,1,6.59936736347,2015_Jul_08_1336,357.524927026,KRITL,001,31010,
,,,,,,,,"('THIRD', 'TIMES', 'DECREASE', 'x', 'y')",TIMES,3,"(3, 15, 5)",5,5,5,4,decrease,third,0,UBUxy,,,,,0,0,0,7,,,,,,space,1.90163815502,5,1,2.40601045793,2015_Jul_08_1336,357.524927026,KRITL,001,31010,
,,,,,,,,"('TRIPLE', 'HALF', 'ADD', 'DECREASE', 'x', 'y')",half,4,"(1, 4, 2, 6)",6,6,3,2,ADD,triple,decrease,UUBUxy,,,,,0,1,1,15,,,,,,space,2.61507993675,6,1,6.8398003951,2015_Jul_08_1336,357.524927026,KRITL,001,31010,
,,,,,,,,"('THIRD', 'SUBTRACT', 'x', 'y')",SUBTRACT,2,"(3, 1)",1,1,2,5,0,third,0,UBxy,,,,,0,2,2,3,,,,,,space,0.740687790356,1,1,2.2007289966,2015_Jul_08_1336,357.524927026,KRITL,001,31010,
,,,,,,,,"('TIMES', 'DECREASE', 'x', 'y')",decrease,2,"(2, 4)",4,4,2,3,0,TIMES,0,BUxy,,,,,0,3,3,0,,,,,,space,2.88463519202,4,1,2.45372613284,2015_Jul_08_1336,357.524927026,KRITL,001,31010,
,,,,,,,,"('THIRD', 'ADD', 'INCREASE', 'x', 'y')",ADD,3,"(8, 15, 5)",5,5,7,7,increase,third,0,UBUxy,,,,,0,4,4,6,,,,,,space,5.52474684102,5,1,4.66316962277,2015_Jul_08_1336,357.524927026,KRITL,001,31010,
,,,,,,,,"('TRIPLE', 'DECREASE', 'HALF', 'TIMES', 'x', 'y')",decrease,4,"(6, 3, 2, 6)",6,6,2,3,half,triple,TIMES,UUUBxy,,,,,0,5,5,17,,,,,,space,3.68544638209,6,1,6.16624708756,2015_Jul_08_1336,357.524927026,KRITL,001,31010,
,,,,,,,,"('INCREASE', 'DIVIDE', 'TRIPLE', 'DOUBLE', 'x', 'y')",DIVIDE,4,"(6, 18, 3, 4)",4,4,6,3,triple,increase,double,UBUUxy,,,,,0,6,6,12,,,,,,space,2.32310591426,4,1,4.18216120941,2015_Jul_08_1336,357.524927026,KRITL,001,31010,
,,,,,,,,"('TIMES', 'INCREASE', 'THIRD', 'DOUBLE', 'x', 'y')",increase,4,"(6, 2, 3, 9)",9,9,3,3,third,TIMES,double,BUUUxy,,,,,0,7,7,11,,,,,,space,7.12722126846,9,1,2.69344057038,2015_Jul_08_1336,357.524927026,KRITL,001,31010,
,,,,,,,,"('THIRD', 'INCREASE', 'HALF', 'DIVIDE', 'x', 'y')",increase,4,"(4, 2, 3, 1)",1,1,2,8,half,third,DIVIDE,UUUBxy,,,,,0,8,8,16,,,,,,space,5.10942443006,1,1,4.69406472071,2015_Jul_08_1336,357.524927026,KRITL,001,31010,
,,,,,,,,"('THIRD', 'DOUBLE', 'ADD', 'INCREASE', 'x', 'y')",double,4,"(10, 12, 24, 8)",8,8,2,9,ADD,third,increase,UUBUxy,,,,,0,9,9,14,,,,,,space,3.62408357867,8,1,9.95614043792,2015_Jul_08_1336,357.524927026,KRITL,001,31010,
,,,,,,,,"('TIMES', 'INCREASE', 'x', 'y')",increase,2,"(3, 6)",6,6,2,2,0,TIMES,0,BUxy,,,,,0,10,10,1,,,,,,space,0.837314059521,6,1,2.071014891,2015_Jul_08_1336,357.524927026,KRITL,001,31010,
,,,,,,,,"('TIMES', 'DECREASE', 'HALF', 'x', 'y')",decrease,3,"(4, 3, 9)",9,9,3,8,half,TIMES,0,BUUxy,,,,,0,11,11,4,,,,,,space,4.0998647332,9,1,3.14159246613,2015_Jul_08_1336,357.524927026,KRITL,001,31010,
,,,,,,,,"('THIRD', 'DECREASE', 'TIMES', 'x', 'y')",decrease,3,"(25, 24, 8)",8,8,5,5,TIMES,thid,0,UUBxy,,,,,0,12,12,8,,,,,,space,2.58111678419,8,1,4.6933290172,2015_Jul_08_1336,357.524927026,KRITL,001,31010,
,,,,,,,,"('TIMES', 'THIRD', 'HALF', 'x', 'y')",third,3,"(3, 1, 5)",5,5,5,6,half,TIMES,0,BUUxy,,,,,0,13,13,5,,,,,,space,3.55763586648,5,1,1.39897028889,2015_Jul_08_1336,357.524927026,KRITL,001,31010,
,,,,,,,,"('TRIPLE', 'SUBTRACT', 'DOUBLE', 'DECREASE', 'x', 'y')",SUBTRACT,4,"(2, 4, 1, 3)",3,3,3,3,double,triple,decrease,UBUUxy,,,,,0,14,14,13,,,,,,space,6.21307307453,3,1,4.24672517847,2015_Jul_08_1336,357.524927026,KRITL,001,31010,
,,,,,,,,"('SUBTRACT', 'HALF', 'INCREASE', 'TRIPLE', 'x', 'y')",half,4,"(15, 16, 8, 3)",3,3,5,5,increase,SUBTRACT,triple,BUUUxy,,,,,0,15,15,10,,,,,,space,4.75581385402,3,1,4.50222062686,2015_Jul_08_1336,357.524927026,KRITL,001,31010,
,,,,,,,,"('TRIPLE', 'HALF', 'DIVIDE', 'x', 'y')",half,3,"(2, 1, 3)",3,3,2,4,DIVIDE,triple,0,UUBxy,,,,,0,16,16,9,,,,,,space,2.27819001884,3,1,6.67956314955,2015_Jul_08_1336,357.524927026,KRITL,001,31010,
,,,,,,,,"('THIRD', 'ADD', 'x', 'y')",ADD,2,"(9, 3)",3,3,5,4,0,third,0,UBxy,,,,,0,17,17,2,,,,,,space,0.804398685606,3,1,1.28581532883,2015_Jul_08_1336,357.524927026,KRITL,001,31010,
,,,,,,,,"('THIRD', 'HALF', 'INCREASE', 'SUBTRACT', 'x', 'y')",half,4,"(5, 6, 3, 1)",1,1,2,7,increase,third,SUBTRACT,UUUBxy,,,,,0,0,0,17,,,,,,space,4.00039351583,1,1,8.9345963024,2015_Jul_08_1336,357.524927026,KRITL,001,31010,
,,,,,,,,"('ADD', 'TRIPLE', 'DOUBLE', 'DECREASE', 'x', 'y')",triple,4,"(1, 2, 6, 8)",8,8,2,2,double,ADD,decrease,BUUUxy,,,,,0,1,1,11,,,,,,space,2.39137098516,8,1,4.9336939535,2015_Jul_08_1336,357.524927026,KRITL,001,31010,
,,,,,,,,"('DECREASE', 'TIMES', 'x', 'y')",TIMES,2,"(9, 8)",8,8,3,3,0,decrease,0,UBxy,,,,,0,2,2,2,,,,,,space,1.28546321773,8,1,1.3836837392,2015_Jul_08_1336,357.524927026,KRITL,001,31010,
,,,,,,,,"('HALF', 'INCREASE', 'TIMES', 'x', 'y')",increase,3,"(9, 10, 5)",5,5,3,3,TIMES,half,0,UUBxy,,,,,0,3,3,9,,,,,,space,2.22919148242,5,1,2.02144729643,2015_Jul_08_1336,357.524927026,KRITL,001,31010,
,,,,,,,,"('DECREASE', 'SUBTRACT', 'DOUBLE', 'THIRD', 'x', 'y')",SUBTRACT,4,"(3, 6, 4, 3)",3,3,2,9,double,decrease,third,UBUUxy,,,,,0,4,4,13,,,,,,space,4.37302767308,3,1,5.84570005265,2015_Jul_08_1336,357.524927026,KRITL,001,31010,
,,,,,,,,"('ADD', 'TRIPLE', 'HALF', 'x', 'y')",triple,3,"(2, 6, 8)",8,8,2,4,half,ADD,0,BUUxy,,,,,0,5,5,5,,,,,,space,2.3427108723,8,1,2.64498884982,2015_Jul_08_1336,357.524927026,KRITL,001,31010,
,,,,,,,,"('DIVIDE', 'DECREASE', 'x', 'y')",decrease,2,"(8, 2)",2,2,4,9,0,DIVIDE,0,BUxy,,,,,0,6,6,1,,,,,,space,0.756571799691,2,1,1.83008431847,2015_Jul_08_1336,357.524927026,KRITL,001,31010,
,,,,,,,,"('DECREASE', 'TRIPLE', 'SUBTRACT', 'DOUBLE', 'x', 'y')",triple,4,"(6, 3, 9, 8)",8,8,3,3,SUBTRACT,decrease,double,UUBUxy,,,,,0,7,7,15,,,,,,space,5.33237680473,8,1,11.3822273885,2015_Jul_08_1336,357.524927026,KRITL,001,31010,
,,,,,,,,"('DOUBLE', 'SUBTRACT', 'INCREASE', 'x', 'y')",SUBTRACT,3,"(4, 1, 2)",2,2,3,3,increase,double,0,UBUxy,,,,,0,8,8,6,,,,,,space,1.36357200122,2,1,2.13586766642,2015_Jul_08_1336,357.524927026,KRITL,001,31010,
,,,,,,,,"('INCREASE', 'HALF', 'THIRD', 'TIMES', 'x', 'y')",half,4,"(12, 4, 2, 3)",3,3,4,3,third,increase,TIMES,UUUBxy,,,,,0,9,9,16,,,,,,space,3.98787184252,1,0,15.702447292,2015_Jul_08_1336,357.524927026,KRITL,001,31010,
,,,,,,,,"('INCREASE', 'ADD', 'HALF', 'x', 'y')",ADD,3,"(1, 4, 5)",5,5,3,2,half,increase,0,UBUxy,,,,,0,10,10,7,,,,,,space,11.028645214,5,1,2.42244230973,2015_Jul_08_1336,357.524927026,KRITL,001,31010,
,,,,,,,,"('DECREASE', 'ADD', 'THIRD', 'HALF', 'x', 'y')",ADD,4,"(3, 1, 7, 6)",6,6,6,6,third,decrease,half,UBUUxy,,,,,0,11,11,12,,,,,,space,2.53149820369,6,1,3.83303397615,2015_Jul_08_1336,357.524927026,KRITL,001,31010,
,,,,,,,,"('ADD', 'DOUBLE', 'DECREASE', 'x', 'y')",double,3,"(1, 2, 7)",7,7,5,2,decrease,ADD,0,BUUxy,,,,,0,12,12,4,,,,,,space,1.50804739847,7,1,2.55082325221,2015_Jul_08_1336,357.524927026,KRITL,001,31010,
,,,,,,,,"('ADD', 'DECREASE', 'THIRD', 'DOUBLE', 'x', 'y')",decrease,4,"(18, 6, 5, 9)",9,9,4,9,third,ADD,double,BUUUxy,,,,,0,13,13,10,,,,,,space,3.26842432501,9,1,3.01619950638,2015_Jul_08_1336,357.524927026,KRITL,001,31010,
,,,,,,,,"('DOUBLE', 'THIRD', 'ADD', 'x', 'y')",third,3,"(9, 3, 6)",6,6,4,5,ADD,double,0,UUBxy,,,,,0,14,14,8,,,,,,space,2.27805793443,6,1,3.8311403096,2015_Jul_08_1336,357.524927026,KRITL,001,31010,
,,,,,,,,"('ADD', 'DECREASE', 'x', 'y')",decrease,2,"(2, 7)",7,7,5,3,0,ADD,0,BUxy,,,,,0,15,15,0,,,,,,space,0.788224843331,7,1,2.08519241042,2015_Jul_08_1336,357.524927026,KRITL,001,31010,
,,,,,,,,"('DECREASE', 'DOUBLE', 'TIMES', 'THIRD', 'x', 'y')",double,4,"(1, 3, 6, 5)",5,5,3,3,TIMES,decrease,third,UUBUxy,,,,,0,16,16,14,,,,,,space,5.01509834646,5,1,4.77233535898,2015_Jul_08_1336,357.524927026,KRITL,001,31010,
,,,,,,,,"('HALF', 'ADD', 'x', 'y')",ADD,2,"(12, 6)",6,6,8,4,0,half,0,UBxy,,,,,0,17,17,3,,,,,,space,0.694724458532,6,1,2.05586111013,2015_Jul_08_1336,357.524927026,KRITL,001,31010,
