operationc,operationb,operationa,correctresponse,valuey,operationd,condition,valuex,Rule,Operatora,Length,Intermediate,CorrectResponse,Result,Y,X,Operatorc,Operatorb,Operatord,Structure,practice_trials.thisRepN,practice_trials.thisTrialN,practice_trials.thisN,practice_trials.thisIndex,block.thisRepN,block.thisTrialN,block.thisN,block.thisIndex,practice_encoding.keys,practice_encoding.rt,practice_execution.keys,practice_execution.corr,practice_execution.rt,encoding.keys,encoding.rt,execution.keys,execution.corr,execution.rt,date,frameRate,expName,session,participant,
ADD,triple ,half,8,2,0,3,4,,,,,,,,,,,,,0,0,0,3,,,,,['space'],[1.8598548146546818],None,0,,,,,,,2015_Jul_08_1553,None,KRITL,001,31011,
0,decrease,TIMES,8,3,0,2,3,,,,,,,,,,,,,0,1,1,1,,,,,['space'],[4.176864625143935],8,1,7.07555335156,,,,,,2015_Jul_08_1553,None,KRITL,001,31011,
increase,DIVIDE,triple,3,3,0,3,2,,,,,,,,,,,,,0,2,2,4,,,,,['space'],[4.972364530491177],3,1,18.0341342686,,,,,,2015_Jul_08_1553,None,KRITL,001,31011,
0,ADD,half,7,5,0,2,4,,,,,,,,,,,,,0,3,3,2,,,,,['space'],[3.2237882644403726],7,1,2.66326071732,,,,,,2015_Jul_08_1553,None,KRITL,001,31011,
0,ADD,decrease,7,5,0,2,3,,,,,,,,,,,,,0,4,4,0,,,,,['space'],[2.5047085671685636],7,1,3.13793062419,,,,,,2015_Jul_08_1553,None,KRITL,001,31011,
increase,DIVIDE,double,9,8,triple,4,8,,,,,,,,,,,,,0,5,5,5,,,,,['space'],[7.564555962628219],9,1,5.51072931784,,,,,,2015_Jul_08_1553,None,KRITL,001,31011,
,,,,,,,,"('DIVIDE', 'THIRD', 'x', 'y')",third,2,"(3, 1)",1,1,3,9,0,DIVIDE,0,BUxy,,,,,0,0,0,0,,,,,,space,3.15604747029,1,1,2.27674665287,2015_Jul_08_1553,None,KRITL,001,31011,
,,,,,,,,"('DOUBLE', 'DIVIDE', 'TRIPLE', 'INCREASE', 'x', 'y')",DIVIDE,4,"(5, 15, 3, 6)",6,6,5,4,triple,double,increase,UBUUxy,,,,,0,1,1,12,,,,,,space,7.55429891885,6,1,5.69869649557,2015_Jul_08_1553,None,KRITL,001,31011,
,,,,,,,,"('SUBTRACT', 'TRIPLE', 'DECREASE', 'DOUBLE', 'x', 'y')",triple,4,"(4, 3, 9, 1)",1,1,8,2,decrease,SUBTRACT,double,BUUUxy,,,,,0,2,2,11,,,,,,space,6.59685992866,8,0,8.48859105546,2015_Jul_08_1553,None,KRITL,001,31011,
,,,,,,,,"('INCREASE', 'SUBTRACT', 'x', 'y')",SUBTRACT,2,"(3, 4)",4,4,3,6,0,increase,0,UBxy,,,,,0,3,3,2,,,,,,space,6.1920463378,4,1,3.287909049,2015_Jul_08_1553,None,KRITL,001,31011,
,,,,,,,,"('THIRD', 'DIVIDE', 'DECREASE', 'x', 'y')",DIVIDE,3,"(6, 3, 1)",1,1,2,7,decrease,third,0,UBUxy,,,,,0,4,4,6,,,,,,space,4.67778800057,1,1,4.3752666275,2015_Jul_08_1553,None,KRITL,001,31011,
,,,,,,,,"('DECREASE', 'TRIPLE', 'HALF', 'SUBTRACT', 'x', 'y')",triple,4,"(4, 2, 6, 5)",5,5,2,6,half,decrease,SUBTRACT,UUUBxy,,,,,0,5,5,16,,,,,,space,9.26948668587,5,1,8.27955370014,2015_Jul_08_1553,None,KRITL,001,31011,
,,,,,,,,"('THIRD', 'TIMES', 'HALF', 'x', 'y')",TIMES,3,"(3, 18, 6)",6,6,6,6,half,third,0,UBUxy,,,,,0,6,6,7,,,,,,space,4.25905641077,6,1,7.55672030772,2015_Jul_08_1553,None,KRITL,001,31011,
,,,,,,,,"('SUBTRACT', 'DOUBLE', 'TRIPLE', 'DECREASE', 'x', 'y')",double,4,"(2, 6, 12, 8)",8,8,4,3,triple,SUBTRACT,decrease,BUUUxy,,,,,0,7,7,10,,,,,,space,9.92731003962,8,1,8.18155726904,2015_Jul_08_1553,None,KRITL,001,31011,
,,,,,,,,"('TIMES', 'DOUBLE', 'x', 'y')",double,2,"(4, 8)",8,8,2,2,0,TIMES,0,BUxy,,,,,0,8,8,1,,,,,,space,2.53341982067,8,1,2.74642924761,2015_Jul_08_1553,None,KRITL,001,31011,
,,,,,,,,"('DECREASE', 'TRIPLE', 'DIVIDE', 'DOUBLE', 'x', 'y')",triple,4,"(6, 2, 6, 5)",5,5,3,3,DIVIDE,decrease,double,UUBUxy,,,,,0,9,9,14,,,,,,space,7.63198844004,5,1,7.15857524765,2015_Jul_08_1553,None,KRITL,001,31011,
,,,,,,,,"('DOUBLE', 'DECREASE', 'ADD', 'x', 'y')",decrease,3,"(4, 3, 6)",6,6,2,2,ADD,double,0,UUBxy,,,,,0,10,10,8,,,,,,space,4.14951192513,6,1,4.03466691118,2015_Jul_08_1553,None,KRITL,001,31011,
,,,,,,,,"('INCREASE', 'ADD', 'HALF', 'TRIPLE', 'x', 'y')",ADD,4,"(6, 3, 6, 7)",7,7,3,2,half,increase,triple,UBUUxy,,,,,0,11,11,13,,,,,,space,8.19567754617,7,1,6.14789754925,2015_Jul_08_1553,None,KRITL,001,31011,
,,,,,,,,"('THIRD', 'DECREASE', 'TIMES', 'HALF', 'x', 'y')",decrease,4,"(4, 16, 15, 5)",5,5,4,8,TIMES,third,half,UUBUxy,,,,,0,12,12,15,,,,,,space,8.34322583309,6,0,15.8252746941,2015_Jul_08_1553,None,KRITL,001,31011,
,,,,,,,,"('DOUBLE', 'THIRD', 'TIMES', 'x', 'y')",third,3,"(12, 4, 8)",8,8,6,2,TIMES,double,0,UUBxy,,,,,0,13,13,9,,,,,,space,6.87846755727,8,1,4.79013043443,2015_Jul_08_1553,None,KRITL,001,31011,
,,,,,,,,"('SUBTRACT', 'TRIPLE', 'DECREASE', 'x', 'y')",triple,3,"(4, 12, 3)",3,3,9,5,decrease,SUBTRACT,0,BUUxy,,,,,0,14,14,4,,,,,,space,4.97744143294,3,1,3.94314618169,2015_Jul_08_1553,None,KRITL,001,31011,
,,,,,,,,"('HALF', 'TRIPLE', 'INCREASE', 'SUBTRACT', 'x', 'y')",triple,4,"(1, 2, 6, 3)",3,3,2,3,increase,half,SUBTRACT,UUUBxy,,,,,0,15,15,17,,,,,,space,4.34214934919,3,1,5.41487745546,2015_Jul_08_1553,None,KRITL,001,31011,
,,,,,,,,"('THIRD', 'DIVIDE', 'x', 'y')",DIVIDE,2,"(3, 1)",1,1,2,6,0,third,0,UBxy,,,,,0,16,16,3,,,,,,space,3.1882688452,1,1,3.38143856186,2015_Jul_08_1553,None,KRITL,001,31011,
,,,,,,,,"('TIMES', 'HALF', 'INCREASE', 'x', 'y')",half,3,"(6, 3, 9)",9,9,3,5,increase,TIMES,0,BUUxy,,,,,0,17,17,5,,,,,,space,3.65093889624,9,1,3.15859029604,2015_Jul_08_1553,None,KRITL,001,31011,
,,,,,,,,"('INCREASE', 'SUBTRACT', 'THIRD', 'x', 'y')",SUBTRACT,3,"(3, 1, 2)",2,2,2,9,third,increase,0,UBUxy,,,,,0,0,0,7,,,,,,space,3.43139672386,2,1,4.70857313038,2015_Jul_08_1553,None,KRITL,001,31011,
,,,,,,,,"('TIMES', 'INCREASE', 'HALF', 'TRIPLE', 'x', 'y')",increase,4,"(6, 3, 4, 8)",8,8,2,2,half,TIMES,triple,BUUUxy,,,,,0,1,1,11,,,,,,space,4.85179133429,8,1,4.85319083337,2015_Jul_08_1553,None,KRITL,001,31011,
,,,,,,,,"('DECREASE', 'TRIPLE', 'HALF', 'ADD', 'x', 'y')",triple,4,"(6, 3, 9, 8)",8,8,2,4,half,decrease,ADD,UUUBxy,,,,,0,2,2,16,,,,,,space,5.86092394935,8,1,5.07380004067,2015_Jul_08_1553,None,KRITL,001,31011,
,,,,,,,,"('THIRD', 'INCREASE', 'ADD', 'DOUBLE', 'x', 'y')",increase,4,"(16, 20, 21, 7)",7,7,4,8,ADD,third,double,UUBUxy,,,,,0,3,3,14,,,,,,space,7.99386971115,7,1,5.91865442312,2015_Jul_08_1553,None,KRITL,001,31011,
,,,,,,,,"('DOUBLE', 'ADD', 'x', 'y')",ADD,2,"(4, 8)",8,8,2,2,0,double,0,UBxy,,,,,0,4,4,2,,,,,,space,1.81156352288,8,1,1.69780549168,2015_Jul_08_1553,None,KRITL,001,31011,
,,,,,,,,"('ADD', 'THIRD', 'x', 'y')",third,2,"(1, 7)",7,7,6,3,0,ADD,0,BUxy,,,,,0,5,5,0,,,,,,space,1.30818551219,7,1,2.32356460356,2015_Jul_08_1553,None,KRITL,001,31011,
,,,,,,,,"('THIRD', 'TIMES', 'HALF', 'INCREASE', 'x', 'y')",TIMES,4,"(8, 4, 12, 4)",4,4,3,7,half,third,increase,UBUUxy,,,,,0,6,6,13,,,,,,space,6.51388737724,4,1,6.58681846163,2015_Jul_08_1553,None,KRITL,001,31011,
,,,,,,,,"('INCREASE', 'DIVIDE', 'TRIPLE', 'HALF', 'x', 'y')",DIVIDE,4,"(2, 6, 2, 3)",3,3,3,4,triple,increase,half,UBUUxy,,,,,0,7,7,12,,,,,,space,7.870125157,3,1,8.5329039763,2015_Jul_08_1553,None,KRITL,001,31011,
,,,,,,,,"('TIMES', 'THIRD', 'DOUBLE', 'x', 'y')",third,3,"(6, 2, 4)",4,4,2,3,double,TIMES,0,BUUxy,,,,,0,8,8,5,,,,,,space,2.24548137483,4,1,4.38912688267,2015_Jul_08_1553,None,KRITL,001,31011,
,,,,,,,,"('DOUBLE', 'TIMES', 'x', 'y')",TIMES,2,"(4, 8)",8,8,2,2,0,double,0,UBxy,,,,,0,9,9,3,,,,,,space,1.68836525982,8,1,2.50041977972,2015_Jul_08_1553,None,KRITL,001,31011,
,,,,,,,,"('SUBTRACT', 'INCREASE', 'x', 'y')",increase,2,"(6, 2)",2,2,4,5,0,SUBTRACT,0,BUxy,,,,,0,10,10,1,,,,,,space,2.48398205254,2,1,3.96018759377,2015_Jul_08_1553,None,KRITL,001,31011,
,,,,,,,,"('DECREASE', 'TRIPLE', 'DIVIDE', 'x', 'y')",triple,3,"(2, 6, 5)",5,5,4,8,DIVIDE,decrease,0,UUBxy,,,,,0,11,11,8,,,,,,space,3.3002921135,5,1,4.08594758056,2015_Jul_08_1553,None,KRITL,001,31011,
,,,,,,,,"('DIVIDE', 'TRIPLE', 'HALF', 'x', 'y')",triple,3,"(4, 12, 4)",4,4,3,8,half,DIVIDE,0,BUUxy,,,,,0,12,12,4,,,,,,space,1.47704370083,4,1,4.34118800287,2015_Jul_08_1553,None,KRITL,001,31011,
,,,,,,,,"('TRIPLE', 'DECREASE', 'HALF', 'SUBTRACT', 'x', 'y')",decrease,4,"(4, 2, 1, 3)",3,3,5,9,half,triple,SUBTRACT,UUUBxy,,,,,0,13,13,17,,,,,,space,6.11539025517,3,1,5.91085271453,2015_Jul_08_1553,None,KRITL,001,31011,
,,,,,,,,"('INCREASE', 'ADD', 'TRIPLE', 'x', 'y')",ADD,3,"(6, 8, 9)",9,9,2,2,triple,increase,0,UBUxy,,,,,0,14,14,6,,,,,,space,1.98897863865,9,1,3.60270149865,2015_Jul_08_1553,None,KRITL,001,31011,
,,,,,,,,"('TRIPLE', 'DOUBLE', 'SUBTRACT', 'DECREASE', 'x', 'y')",double,4,"(4, 1, 2, 6)",6,6,3,5,SUBTRACT,triple,decrease,UUBUxy,,,,,0,15,15,15,,,,,,space,5.19102899752,6,1,6.05489647941,2015_Jul_08_1553,None,KRITL,001,31011,
,,,,,,,,"('DIVIDE', 'DOUBLE', 'INCREASE', 'THIRD', 'x', 'y')",double,4,"(2, 3, 6, 2)",2,2,3,6,increase,DIVIDE,third,BUUUxy,,,,,0,16,16,10,,,,,,space,9.21981619282,2,1,7.99293146234,2015_Jul_08_1553,None,KRITL,001,31011,
,,,,,,,,"('THIRD', 'INCREASE', 'SUBTRACT', 'x', 'y')",increase,3,"(2, 3, 1)",1,1,6,8,SUBTRACT,third,0,UUBxy,,,,,0,17,17,9,,,,,,space,2.78607332199,1,1,4.88683865445,2015_Jul_08_1553,None,KRITL,001,31011,
,,,,,,,,"('DOUBLE', 'THIRD', 'ADD', 'x', 'y')",third,3,"(9, 3, 6)",6,6,4,5,ADD,double,0,UUBxy,,,,,0,0,0,8,,,,,,space,1.8419591447,6,1,4.15215763981,2015_Jul_08_1553,None,KRITL,001,31011,
,,,,,,,,"('HALF', 'ADD', 'x', 'y')",ADD,2,"(12, 6)",6,6,8,4,0,half,0,UBxy,,,,,0,1,1,3,,,,,,space,1.4915975812,6,1,2.93340253254,2015_Jul_08_1553,None,KRITL,001,31011,
,,,,,,,,"('INCREASE', 'ADD', 'HALF', 'x', 'y')",ADD,3,"(1, 4, 5)",5,5,3,2,half,increase,0,UBUxy,,,,,0,2,2,7,,,,,,space,2.00210012351,5,1,3.12332354956,2015_Jul_08_1553,None,KRITL,001,31011,
,,,,,,,,"('DECREASE', 'ADD', 'THIRD', 'HALF', 'x', 'y')",ADD,4,"(3, 1, 7, 6)",6,6,6,6,third,decrease,half,UBUUxy,,,,,0,3,3,12,,,,,,space,6.32313100033,6,1,7.82796765369,2015_Jul_08_1553,None,KRITL,001,31011,
,,,,,,,,"('DECREASE', 'TRIPLE', 'SUBTRACT', 'DOUBLE', 'x', 'y')",triple,4,"(6, 3, 9, 8)",8,8,3,3,SUBTRACT,decrease,double,UUBUxy,,,,,0,4,4,15,,,,,,space,10.0036819529,8,1,7.28481258296,2015_Jul_08_1553,None,KRITL,001,31011,
,,,,,,,,"('THIRD', 'HALF', 'INCREASE', 'SUBTRACT', 'x', 'y')",half,4,"(5, 6, 3, 1)",1,1,2,7,increase,third,SUBTRACT,UUUBxy,,,,,0,5,5,17,,,,,,space,6.37664162921,1,1,5.34558107908,2015_Jul_08_1553,None,KRITL,001,31011,
,,,,,,,,"('INCREASE', 'HALF', 'THIRD', 'TIMES', 'x', 'y')",half,4,"(12, 4, 2, 3)",3,3,4,3,third,increase,TIMES,UUUBxy,,,,,0,6,6,16,,,,,,space,7.53569737505,3,1,5.04918859502,2015_Jul_08_1553,None,KRITL,001,31011,
,,,,,,,,"('ADD', 'TRIPLE', 'DOUBLE', 'DECREASE', 'x', 'y')",triple,4,"(1, 2, 6, 8)",8,8,2,2,double,ADD,decrease,BUUUxy,,,,,0,7,7,11,,,,,,space,6.01920837838,8,1,6.45398258798,2015_Jul_08_1553,None,KRITL,001,31011,
,,,,,,,,"('DOUBLE', 'SUBTRACT', 'INCREASE', 'x', 'y')",SUBTRACT,3,"(4, 1, 2)",2,2,3,3,increase,double,0,UBUxy,,,,,0,8,8,6,,,,,,space,4.42153373759,2,1,4.53001713766,2015_Jul_08_1553,None,KRITL,001,31011,
,,,,,,,,"('DIVIDE', 'DECREASE', 'x', 'y')",decrease,2,"(8, 2)",2,2,4,9,0,DIVIDE,0,BUxy,,,,,0,9,9,1,,,,,,space,2.32299521496,2,1,2.13528001004,2015_Jul_08_1553,None,KRITL,001,31011,
,,,,,,,,"('ADD', 'DECREASE', 'x', 'y')",decrease,2,"(2, 7)",7,7,5,3,0,ADD,0,BUxy,,,,,0,10,10,0,,,,,,space,1.46132374623,7,1,1.55729039622,2015_Jul_08_1553,None,KRITL,001,31011,
,,,,,,,,"('DECREASE', 'SUBTRACT', 'DOUBLE', 'THIRD', 'x', 'y')",SUBTRACT,4,"(3, 6, 4, 3)",3,3,2,9,double,decrease,third,UBUUxy,,,,,0,11,11,13,,,,,,space,5.41308774849,3,1,7.11103742461,2015_Jul_08_1553,None,KRITL,001,31011,
,,,,,,,,"('ADD', 'TRIPLE', 'HALF', 'x', 'y')",triple,3,"(2, 6, 8)",8,8,2,4,half,ADD,0,BUUxy,,,,,0,12,12,5,,,,,,space,3.05993523599,8,1,3.14197513797,2015_Jul_08_1553,None,KRITL,001,31011,
,,,,,,,,"('DECREASE', 'DOUBLE', 'TIMES', 'THIRD', 'x', 'y')",double,4,"(1, 3, 6, 5)",5,5,3,3,TIMES,decrease,third,UUBUxy,,,,,0,13,13,14,,,,,,space,5.5838182352,5,1,5.54031092746,2015_Jul_08_1553,None,KRITL,001,31011,
,,,,,,,,"('HALF', 'INCREASE', 'TIMES', 'x', 'y')",increase,3,"(9, 10, 5)",5,5,3,3,TIMES,half,0,UUBxy,,,,,0,14,14,9,,,,,,space,4.4666620705,5,1,3.63277200554,2015_Jul_08_1553,None,KRITL,001,31011,
,,,,,,,,"('ADD', 'DOUBLE', 'DECREASE', 'x', 'y')",double,3,"(1, 2, 7)",7,7,5,2,decrease,ADD,0,BUUxy,,,,,0,15,15,4,,,,,,space,2.11469453019,7,1,3.02829969788,2015_Jul_08_1553,None,KRITL,001,31011,
,,,,,,,,"('DECREASE', 'TIMES', 'x', 'y')",TIMES,2,"(9, 8)",8,8,3,3,0,decrease,0,UBxy,,,,,0,16,16,2,,,,,,space,1.29587943941,8,1,1.29879812463,2015_Jul_08_1553,None,KRITL,001,31011,
,,,,,,,,"('ADD', 'DECREASE', 'THIRD', 'DOUBLE', 'x', 'y')",decrease,4,"(18, 6, 5, 9)",9,9,4,9,third,ADD,double,BUUUxy,,,,,0,17,17,10,,,,,,space,6.48380252189,9,1,6.98091900788,2015_Jul_08_1553,None,KRITL,001,31011,
,,,,,,,,"('HALF', 'TRIPLE', 'INCREASE', 'DIVIDE', 'x', 'y')",triple,4,"(3, 4, 12, 6)",6,6,3,9,increase,half,DIVIDE,UUUBxy,,,,,0,0,0,16,,,,,,space,4.30574767511,6,1,4.72883629501,2015_Jul_08_1553,None,KRITL,001,31011,
,,,,,,,,"('DIVIDE', 'DECREASE', 'TRIPLE', 'x', 'y')",decrease,3,"(9, 8, 4)",4,4,2,3,triple,DIVIDE,0,BUUxy,,,,,0,1,1,5,,,,,,space,3.22952834537,4,1,3.84957782303,2015_Jul_08_1553,None,KRITL,001,31011,
,,,,,,,,"('INCREASE', 'TRIPLE', 'DIVIDE', 'x', 'y')",triple,3,"(2, 6, 7)",7,7,3,6,DIVIDE,increase,0,UUBxy,,,,,0,2,2,8,,,,,,space,2.62419513056,7,1,4.38941000213,2015_Jul_08_1553,None,KRITL,001,31011,
,,,,,,,,"('THIRD', 'INCREASE', 'DIVIDE', 'DOUBLE', 'x', 'y')",increase,4,"(18, 2, 3, 1)",1,1,9,9,DIVIDE,third,double,UUBUxy,,,,,0,3,3,15,,,,,,space,11.8296019774,1,1,5.33323476063,2015_Jul_08_1553,None,KRITL,001,31011,
,,,,,,,,"('THIRD', 'TIMES', 'DOUBLE', 'DECREASE', 'x', 'y')",TIMES,4,"(1, 2, 6, 2)",2,2,3,2,double,third,decrease,UBUUxy,,,,,0,4,4,13,,,,,,space,4.76977347993,2,1,6.24479089931,2015_Jul_08_1553,None,KRITL,001,31011,
,,,,,,,,"('ADD', 'HALF', 'THIRD', 'x', 'y')",half,3,"(2, 1, 9)",9,9,8,6,third,ADD,0,BUUxy,,,,,0,5,5,4,,,,,,space,2.51753433392,9,1,4.49788395323,2015_Jul_08_1553,None,KRITL,001,31011,
,,,,,,,,"('HALF', 'ADD', 'TRIPLE', 'x', 'y')",ADD,3,"(9, 12, 6)",6,6,3,3,triple,half,0,UBUxy,,,,,0,6,6,6,,,,,,space,2.61055150202,6,1,3.33315146962,2015_Jul_08_1553,None,KRITL,001,31011,
,,,,,,,,"('SUBTRACT', 'DECREASE', 'TRIPLE', 'DOUBLE', 'x', 'y')",decrease,4,"(6, 18, 17, 8)",8,8,9,3,triple,SUBTRACT,double,BUUUxy,,,,,0,7,7,11,,,,,,space,6.30752933297,8,1,7.12804804002,2015_Jul_08_1553,None,KRITL,001,31011,
,,,,,,,,"('INCREASE', 'SUBTRACT', 'HALF', 'x', 'y')",SUBTRACT,3,"(4, 2, 3)",3,3,2,8,half,increase,0,UBUxy,,,,,0,8,8,7,,,,,,space,3.04381597445,3,1,3.13860430152,2015_Jul_08_1553,None,KRITL,001,31011,
,,,,,,,,"('SUBTRACT', 'DECREASE', 'x', 'y')",decrease,2,"(5, 3)",3,3,2,6,0,SUBTRACT,0,BUxy,,,,,0,9,9,1,,,,,,space,2.08800360881,3,1,2.26079572318,2015_Jul_08_1553,None,KRITL,001,31011,
,,,,,,,,"('DECREASE', 'DIVIDE', 'x', 'y')",DIVIDE,2,"(2, 1)",1,1,4,8,0,decrease,0,UBxy,,,,,0,10,10,2,,,,,,space,1.72174360995,1,1,3.12286369914,2015_Jul_08_1553,None,KRITL,001,31011,
,,,,,,,,"('ADD', 'DOUBLE', 'DECREASE', 'THIRD', 'x', 'y')",double,4,"(2, 1, 2, 8)",8,8,6,6,decrease,ADD,third,BUUUxy,,,,,0,11,11,10,,,,,,space,4.78857975168,8,1,5.5421965241,2015_Jul_08_1553,None,KRITL,001,31011,
,,,,,,,,"('THIRD', 'DOUBLE', 'ADD', 'DECREASE', 'x', 'y')",double,4,"(5, 12, 24, 8)",8,8,7,6,ADD,third,decrease,UUBUxy,,,,,0,12,12,14,,,,,,space,6.9349122697,8,1,6.98184745775,2015_Jul_08_1553,None,KRITL,001,31011,
,,,,,,,,"('INCREASE', 'ADD', 'x', 'y')",ADD,2,"(5, 6)",6,6,2,3,0,increase,0,UBxy,,,,,0,13,13,3,,,,,,space,1.02872315221,6,1,2.34284857378,2015_Jul_08_1553,None,KRITL,001,31011,
,,,,,,,,"('THIRD', 'DOUBLE', 'INCREASE', 'TIMES', 'x', 'y')",double,4,"(8, 9, 18, 6)",6,6,4,2,increase,third,TIMES,UUUBxy,,,,,0,14,14,17,,,,,,space,2.96354303187,6,1,6.4391459381,2015_Jul_08_1553,None,KRITL,001,31011,
,,,,,,,,"('THIRD', 'HALF', 'ADD', 'x', 'y')",half,3,"(6, 3, 1)",1,1,3,3,ADD,third,0,UUBxy,,,,,0,15,15,9,,,,,,space,1.47500237099,1,1,3.77991503617,2015_Jul_08_1553,None,KRITL,001,31011,
,,,,,,,,"('DIVIDE', 'INCREASE', 'x', 'y')",increase,2,"(4, 2)",2,2,2,3,0,DIVIDE,0,BUxy,,,,,0,16,16,0,,,,,,space,1.69763051055,2,1,2.04146247827,2015_Jul_08_1553,None,KRITL,001,31011,
,,,,,,,,"('DOUBLE', 'ADD', 'INCREASE', 'THIRD', 'x', 'y')",ADD,4,"(1, 2, 4, 8)",8,8,2,3,increase,double,third,UBUUxy,,,,,0,17,17,12,,,,,,space,4.99554743021,8,1,5.46104167665,2015_Jul_08_1553,None,KRITL,001,31011,
,,,,,,,,"('THIRD', 'INCREASE', 'HALF', 'DIVIDE', 'x', 'y')",increase,4,"(4, 2, 3, 1)",1,1,2,8,half,third,DIVIDE,UUUBxy,,,,,0,0,0,16,,,,,,space,7.35017503363,1,1,4.85376967094,2015_Jul_08_1553,None,KRITL,001,31011,
,,,,,,,,"('TIMES', 'INCREASE', 'x', 'y')",increase,2,"(3, 6)",6,6,2,2,0,TIMES,0,BUxy,,,,,0,1,1,1,,,,,,space,1.47630913006,6,1,1.87844340988,2015_Jul_08_1553,None,KRITL,001,31011,
,,,,,,,,"('TIMES', 'DECREASE', 'HALF', 'x', 'y')",decrease,3,"(4, 3, 9)",9,9,3,8,half,TIMES,0,BUUxy,,,,,0,2,2,4,,,,,,space,1.38039147478,9,1,3.35081791428,2015_Jul_08_1553,None,KRITL,001,31011,
,,,,,,,,"('SUBTRACT', 'HALF', 'INCREASE', 'TRIPLE', 'x', 'y')",half,4,"(15, 16, 8, 3)",3,3,5,5,increase,SUBTRACT,triple,BUUUxy,,,,,0,3,3,10,,,,,,space,6.96737091904,3,1,4.77674052854,2015_Jul_08_1553,None,KRITL,001,31011,
,,,,,,,,"('TRIPLE', 'SUBTRACT', 'DOUBLE', 'DECREASE', 'x', 'y')",SUBTRACT,4,"(2, 4, 1, 3)",3,3,3,3,double,triple,decrease,UBUUxy,,,,,0,4,4,13,,,,,,space,5.34722975128,3,1,7.62427562187,2015_Jul_08_1553,None,KRITL,001,31011,
,,,,,,,,"('THIRD', 'ADD', 'x', 'y')",ADD,2,"(9, 3)",3,3,5,4,0,third,0,UBxy,,,,,0,5,5,2,,,,,,space,1.21765132631,3,1,1.61896144501,2015_Jul_08_1553,None,KRITL,001,31011,
,,,,,,,,"('TRIPLE', 'DECREASE', 'HALF', 'TIMES', 'x', 'y')",decrease,4,"(6, 3, 2, 6)",6,6,2,3,half,triple,TIMES,UUUBxy,,,,,0,6,6,17,,,,,,space,6.61163708495,9,0,8.70981934598,2015_Jul_08_1553,None,KRITL,001,31011,
,,,,,,,,"('THIRD', 'ADD', 'INCREASE', 'x', 'y')",ADD,3,"(8, 15, 5)",5,5,7,7,increase,third,0,UBUxy,,,,,0,7,7,6,,,,,,space,4.77249338658,5,1,3.60462734094,2015_Jul_08_1553,None,KRITL,001,31011,
,,,,,,,,"('TIMES', 'INCREASE', 'THIRD', 'DOUBLE', 'x', 'y')",increase,4,"(6, 2, 3, 9)",9,9,3,3,third,TIMES,double,BUUUxy,,,,,0,8,8,11,,,,,,space,7.37912811105,9,1,9.20480351194,2015_Jul_08_1553,None,KRITL,001,31011,
,,,,,,,,"('THIRD', 'TIMES', 'DECREASE', 'x', 'y')",TIMES,3,"(3, 15, 5)",5,5,5,4,decrease,third,0,UBUxy,,,,,0,9,9,7,,,,,,space,1.86154443242,5,1,2.98282455237,2015_Jul_08_1553,None,KRITL,001,31011,
,,,,,,,,"('THIRD', 'DOUBLE', 'ADD', 'INCREASE', 'x', 'y')",double,4,"(10, 12, 24, 8)",8,8,2,9,ADD,third,increase,UUBUxy,,,,,0,10,10,14,,,,,,space,6.65930649379,8,1,6.35558754987,2015_Jul_08_1553,None,KRITL,001,31011,
,,,,,,,,"('THIRD', 'SUBTRACT', 'x', 'y')",SUBTRACT,2,"(3, 1)",1,1,2,5,0,third,0,UBxy,,,,,0,11,11,3,,,,,,space,1.3797254966,1,1,2.30927389482,2015_Jul_08_1553,None,KRITL,001,31011,
,,,,,,,,"('TRIPLE', 'HALF', 'DIVIDE', 'x', 'y')",half,3,"(2, 1, 3)",3,3,2,4,DIVIDE,triple,0,UUBxy,,,,,0,12,12,9,,,,,,space,2.00151918615,3,1,2.6328168007,2015_Jul_08_1553,None,KRITL,001,31011,
,,,,,,,,"('TIMES', 'DECREASE', 'x', 'y')",decrease,2,"(2, 4)",4,4,2,3,0,TIMES,0,BUxy,,,,,0,13,13,0,,,,,,space,1.0076893707,4,1,1.79871360875,2015_Jul_08_1553,None,KRITL,001,31011,
,,,,,,,,"('INCREASE', 'DIVIDE', 'TRIPLE', 'DOUBLE', 'x', 'y')",DIVIDE,4,"(6, 18, 3, 4)",4,4,6,3,triple,increase,double,UBUUxy,,,,,0,14,14,12,,,,,,space,6.27336916713,4,1,5.36691547817,2015_Jul_08_1553,None,KRITL,001,31011,
,,,,,,,,"('TRIPLE', 'HALF', 'ADD', 'DECREASE', 'x', 'y')",half,4,"(1, 4, 2, 6)",6,6,3,2,ADD,triple,decrease,UUBUxy,,,,,0,15,15,15,,,,,,space,9.55205706065,6,1,4.02594060231,2015_Jul_08_1553,None,KRITL,001,31011,
,,,,,,,,"('TIMES', 'THIRD', 'HALF', 'x', 'y')",third,3,"(3, 1, 5)",5,5,5,6,half,TIMES,0,BUUxy,,,,,0,16,16,5,,,,,,space,2.86489392119,5,1,6.51972334784,2015_Jul_08_1553,None,KRITL,001,31011,
,,,,,,,,"('THIRD', 'DECREASE', 'TIMES', 'x', 'y')",decrease,3,"(25, 24, 8)",8,8,5,5,TIMES,thid,0,UUBxy,,,,,0,17,17,8,,,,,,space,4.99946000824,8,1,4.81497005548,2015_Jul_08_1553,None,KRITL,001,31011,
,,,,,,,,"('DECREASE', 'ADD', 'DOUBLE', 'THIRD', 'x', 'y')",ADD,4,"(3, 6, 10, 9)",9,9,4,9,double,decrease ,third,UBUUxy,,,,,0,0,0,12,,,,,,space,3.00436017975,9,1,6.21447121928,2015_Jul_08_1553,None,KRITL,001,31011,
,,,,,,,,"('DOUBLE', 'TRIPLE', 'SUBTRACT', 'x', 'y')",triple,3,"(1, 3, 6)",6,6,3,4,SUBTRACT,double,0,UUBxy,,,,,0,1,1,9,,,,,,space,5.65352791702,6,1,2.98002240458,2015_Jul_08_1553,None,KRITL,001,31011,
,,,,,,,,"('HALF', 'SUBTRACT', 'TRIPLE', 'x', 'y')",SUBTRACT,3,"(9, 2, 1)",1,1,7,3,triple,half,0,UBUxy,,,,,0,2,2,6,,,,,,space,5.28713563243,1,1,3.93926160064,2015_Jul_08_1553,None,KRITL,001,31011,
,,,,,,,,"('DECREASE', 'HALF', 'TRIPLE', 'DIVIDE', 'x', 'y')",half,4,"(4, 12, 6, 5)",5,5,2,8,triple,decrease,DIVIDE,UUUBxy,,,,,0,3,3,16,,,,,,space,5.55494739892,5,1,5.12543102227,2015_Jul_08_1553,None,KRITL,001,31011,
,,,,,,,,"('DIVIDE', 'DOUBLE', 'x', 'y')",double,2,"(12, 2)",2,2,6,6,0,DIVIDE,0,BUxy,,,,,0,4,4,1,,,,,,space,1.37707558241,2,1,1.75022703802,2015_Jul_08_1553,None,KRITL,001,31011,
,,,,,,,,"('DOUBLE', 'DECREASE', 'TRIPLE', 'DIVIDE', 'x', 'y')",decrease,4,"(1, 3, 2, 4)",4,4,4,4,triple,double,DIVIDE,UUUBxy,,,,,0,5,5,17,,,,,,space,8.18258475824,4,1,6.80169108762,2015_Jul_08_1553,None,KRITL,001,31011,
,,,,,,,,"('INCREASE', 'DIVIDE', 'THIRD', 'x', 'y')",DIVIDE,3,"(3, 1, 2)",2,2,3,9,third,increase,0,UBUxy,,,,,0,6,6,7,,,,,,space,2.67652008731,2,1,2.83258610559,2015_Jul_08_1553,None,KRITL,001,31011,
,,,,,,,,"('DOUBLE', 'DECREASE', 'SUBTRACT', 'x', 'y')",decrease,3,"(5, 4, 8)",8,8,2,7,SUBTRACT,double,0,UUBxy,,,,,0,7,7,8,,,,,,space,3.5747454637,8,1,2.75420925854,2015_Jul_08_1553,None,KRITL,001,31011,
,,,,,,,,"('DOUBLE', 'TRIPLE', 'DIVIDE', 'DECREASE', 'x', 'y')",triple,4,"(8, 1, 3, 6)",6,6,8,9,DIVIDE,double,decrease,UUBUxy,,,,,0,8,8,15,,,,,,space,8.9979285734,6,1,4.12992033809,2015_Jul_08_1553,None,KRITL,001,31011,
,,,,,,,,"('DECREASE', 'THIRD', 'TIMES', 'HALF', 'x', 'y')",third,4,"(2, 12, 4, 3)",3,3,6,4,TIMES,decrease,half,UUBUxy,,,,,0,9,9,14,,,,,,space,7.92741817795,3,1,5.34625615628,2015_Jul_08_1553,None,KRITL,001,31011,
,,,,,,,,"('DIVIDE', 'DOUBLE', 'THIRD', 'x', 'y')",double,3,"(2, 4, 1)",1,1,4,6,third,DIVIDE,0,BUUxy,,,,,0,10,10,4,,,,,,space,1.49644665823,1,1,3.10816353456,2015_Jul_08_1553,None,KRITL,001,31011,
,,,,,,,,"('ADD', 'THIRD', 'INCREASE', 'HALF', 'x', 'y')",third,4,"(2, 3, 1, 7)",7,7,6,4,increase,ADD,half,BUUUxy,,,,,0,11,11,10,,,,,,space,6.82277386384,7,1,3.46165166088,2015_Jul_08_1553,None,KRITL,001,31011,
,,,,,,,,"('ADD', 'DOUBLE', 'x', 'y')",double,2,"(4, 8)",8,8,4,2,0,ADD,0,BUxy,,,,,0,12,12,0,,,,,,space,0.99581900092,8,1,1.76237107828,2015_Jul_08_1553,None,KRITL,001,31011,
,,,,,,,,"('HALF', 'TIMES', 'x', 'y')",TIMES,2,"(16, 8)",8,8,4,4,0,half,0,UBxy,,,,,0,13,13,3,,,,,,space,1.09442891585,8,1,5.07477013604,2015_Jul_08_1553,None,KRITL,001,31011,
,,,,,,,,"('DIVIDE', 'INCREASE', 'DOUBLE', 'THIRD', 'x', 'y')",increase,4,"(2, 4, 5, 1)",1,1,5,6,double,DIVIDE,third,BUUUxy,,,,,0,14,14,11,,,,,,space,6.10202974608,1,1,5.45751790669,2015_Jul_08_1553,None,KRITL,001,31011,
,,,,,,,,"('DOUBLE', 'SUBTRACT', 'x', 'y')",SUBTRACT,2,"(1, 2)",2,2,7,8,0,double,0,UBxy,,,,,0,15,15,2,,,,,,space,1.22241851216,2,1,1.65079821141,2015_Jul_08_1553,None,KRITL,001,31011,
,,,,,,,,"('DECREASE', 'TIMES', 'DOUBLE', 'THIRD', 'x', 'y')",TIMES,4,"(1, 2, 8, 7)",7,7,4,3,double,decrease,third,UBUUxy,,,,,0,16,16,13,,,,,,space,7.4258858682,7,1,4.75293259622,2015_Jul_08_1553,None,KRITL,001,31011,
,,,,,,,,"('SUBTRACT', 'HALF', 'TRIPLE', 'x', 'y')",half,3,"(12, 6, 2)",2,2,4,4,triple,SUBTRACT,0,BUUxy,,,,,0,17,17,5,,,,,,space,4.51810162274,2,1,4.05280580489,2015_Jul_08_1553,None,KRITL,001,31011,
,,,,,,,,"('TIMES', 'HALF', 'INCREASE', 'THIRD', 'x', 'y')",half,4,"(1, 2, 1, 9)",9,9,9,3,increase,TIMES,third,BUUUxy,,,,,0,0,0,11,,,,,,space,6.29387205589,9,1,3.89496792771,2015_Jul_08_1553,None,KRITL,001,31011,
,,,,,,,,"('SUBTRACT', 'TRIPLE', 'x', 'y')",triple,2,"(12, 9)",9,9,3,4,0,SUBTRACT,0,BUxy,,,,,0,1,1,1,,,,,,space,1.3143875433,9,1,2.07080016419,2015_Jul_08_1553,None,KRITL,001,31011,
,,,,,,,,"('TRIPLE', 'INCREASE', 'SUBTRACT', 'x', 'y')",increase,3,"(1, 2, 6)",6,6,2,3,SUBTRACT,triple,0,UUBxy,,,,,0,2,2,9,,,,,,space,2.90129559528,6,1,3.25801492309,2015_Jul_08_1553,None,KRITL,001,31011,
,,,,,,,,"('ADD', 'HALF', 'x', 'y')",half,2,"(2, 7)",7,7,5,4,0,ADD,0,BUxy,,,,,0,3,3,0,,,,,,space,0.995009538208,7,1,1.37861331654,2015_Jul_08_1553,None,KRITL,001,31011,
,,,,,,,,"('HALF', 'TIMES', 'DECREASE', 'x', 'y')",TIMES,3,"(8, 16, 8)",8,8,2,9,decrease,half,0,UBUxy,,,,,0,4,4,6,,,,,,space,5.03146370663,8,1,3.33572964156,2015_Jul_08_1553,None,KRITL,001,31011,
,,,,,,,,"('INCREASE', 'DIVIDE', 'TRIPLE', 'x', 'y')",DIVIDE,3,"(6, 2, 3)",3,3,3,2,triple,increase,0,UBUxy,,,,,0,5,5,7,,,,,,space,2.57738627889,3,1,5.39607888288,2015_Jul_08_1553,None,KRITL,001,31011,
,,,,,,,,"('DECREASE', 'THIRD', 'DOUBLE', 'ADD', 'x', 'y')",third,4,"(9, 18, 6, 5)",5,5,4,5,double,decrease,ADD,UUUBxy,,,,,0,6,6,16,,,,,,space,5.35091590372,5,1,5.87521605795,2015_Jul_08_1553,None,KRITL,001,31011,
,,,,,,,,"('TRIPLE', 'HALF', 'ADD', 'x', 'y')",half,3,"(6, 3, 9)",9,9,3,3,ADD,triple,0,UUBxy,,,,,0,7,7,8,,,,,,space,1.55159721023,9,1,4.85464877612,2015_Jul_08_1553,None,KRITL,001,31011,
,,,,,,,,"('DIVIDE', 'TRIPLE', 'DECREASE', 'x', 'y')",triple,3,"(6, 18, 9)",9,9,2,7,decrease,DIVIDE,0,BUUxy,,,,,0,8,8,4,,,,,,space,5.27847546643,9,1,3.85960669143,2015_Jul_08_1553,None,KRITL,001,31011,
,,,,,,,,"('THIRD', 'INCREASE', 'HALF', 'TIMES', 'x', 'y')",increase,4,"(28, 14, 15, 5)",5,5,4,7,half,third,TIMES,UUUBxy,,,,,0,9,9,17,,,,,,space,6.86645125323,5,1,5.57517486739,2015_Jul_08_1553,None,KRITL,001,31011,
,,,,,,,,"('HALF', 'SUBTRACT', 'DECREASE', 'TRIPLE', 'x', 'y')",SUBTRACT,4,"(15, 14, 10, 5)",5,5,4,5,decrease,half,triple,UBUUxy,,,,,0,10,10,12,,,,,,space,8.99605697526,5,1,4.57755146109,2015_Jul_08_1553,None,KRITL,001,31011,
,,,,,,,,"('SUBTRACT', 'INCREASE', 'HALF', 'x', 'y')",increase,3,"(4, 5, 3)",3,3,2,8,half,SUBTRACT,0,BUUxy,,,,,0,11,11,5,,,,,,space,1.57416452635,3,1,8.21313751311,2015_Jul_08_1553,None,KRITL,001,31011,
,,,,,,,,"('INCREASE', 'TIMES', 'TRIPLE', 'HALF', 'x', 'y')",TIMES,4,"(1, 3, 6, 7)",7,7,2,2,triple,increase,half,UBUUxy,,,,,0,12,12,13,,,,,,space,10.2401682479,7,1,4.58176080709,2015_Jul_08_1553,None,KRITL,001,31011,
,,,,,,,,"('DOUBLE', 'DIVIDE', 'x', 'y')",DIVIDE,2,"(1, 2)",2,2,8,8,0,dpuble,0,UBxy,,,,,0,13,13,2,,,,,,space,1.93820716435,2,1,2.2403820748,2015_Jul_08_1553,None,KRITL,001,31011,
,,,,,,,,"('INCREASE', 'DIVIDE', 'x', 'y')",DIVIDE,2,"(4, 5)",5,5,2,8,0,increase,0,UBxy,,,,,0,14,14,3,,,,,,space,1.27053307301,5,1,1.50599222873,2015_Jul_08_1553,None,KRITL,001,31011,
,,,,,,,,"('TRIPLE', 'INCREASE', 'DIVIDE', 'DOUBLE', 'x', 'y')",increase,4,"(16, 2, 3, 9)",9,9,8,8,DIVIDE,triple,double,UUBUxy,,,,,0,15,15,15,,,,,,space,4.90158361421,9,1,4.8391024028,2015_Jul_08_1553,None,KRITL,001,31011,
,,,,,,,,"('DIVIDE', 'DOUBLE', 'INCREASE', 'TRIPLE', 'x', 'y')",double,4,"(9, 10, 20, 5)",5,5,4,3,increase,DIVIDE,triple,BUUUxy,,,,,0,16,16,10,,,,,,space,6.83642729132,5,1,5.33091591072,2015_Jul_08_1553,None,KRITL,001,31011,
,,,,,,,,"('TRIPLE', 'DOUBLE', 'SUBTRACT', 'INCREASE', 'x', 'y')",double,4,"(5, 1, 2, 6)",6,6,4,4,SUBTRACT,triple,increase,UUBUxy,,,,,0,17,17,14,,,,,,space,7.77844729446,6,1,3.70222026555,2015_Jul_08_1553,None,KRITL,001,31011,
,,,,,,,,"('DIVIDE', 'DECREASE', 'THIRD', 'DOUBLE', 'x', 'y')",decrease,4,"(12, 4, 3, 1)",1,1,3,6,third,DIVIDE,double,BUUUxy,,,,,0,0,0,10,,,,,,space,5.68167678117,1,1,5.12276151017,2015_Jul_08_1553,None,KRITL,001,31011,
,,,,,,,,"('THIRD', 'INCREASE', 'SUBTRACT', 'HALF', 'x', 'y')",increase,4,"(4, 2, 3, 1)",1,1,2,8,SUBTRACT,third,half,UUBUxy,,,,,0,1,1,15,,,,,,space,6.79265051264,1,1,3.45617545147,2015_Jul_08_1553,None,KRITL,001,31011,
,,,,,,,,"('DECREASE', 'HALF', 'TRIPLE', 'ADD', 'x', 'y')",half,4,"(4, 12, 6, 5)",5,5,2,2,triple,decrease,ADD,UUUBxy,,,,,0,2,2,16,,,,,,space,4.9536467992,5,1,4.90005182941,2015_Jul_08_1553,None,KRITL,001,31011,
,,,,,,,,"('DECREASE', 'HALF', 'DIVIDE', 'x', 'y')",half,3,"(4, 2, 1)",1,1,2,8,DIVIDE,decrease,0,UUBxy,,,,,0,3,3,8,,,,,,space,1.62044668483,1,1,3.09227979762,2015_Jul_08_1553,None,KRITL,001,31011,
,,,,,,,,"('TRIPLE', 'SUBTRACT', 'INCREASE', 'HALF', 'x', 'y')",SUBTRACT,4,"(3, 4, 1, 3)",3,3,3,6,increase,triple,half,UBUUxy,,,,,0,4,4,13,,,,,,space,8.71161745206,3,1,3.62009252302,2015_Jul_08_1553,None,KRITL,001,31011,
,,,,,,,,"('TIMES', 'DECREASE', 'THIRD', 'DOUBLE', 'x', 'y')",decrease,4,"(6, 2, 1, 2)",2,2,2,3,third,TIMES,double,BUUUxy,,,,,0,5,5,11,,,,,,space,5.98760888638,2,1,5.26917626934,2015_Jul_08_1553,None,KRITL,001,31011,
,,,,,,,,"('INCREASE', 'TIMES', 'x', 'y')",TIMES,2,"(8, 9)",9,9,4,2,0,increase,0,UBxy,,,,,0,6,6,2,,,,,,space,1.60754042676,9,1,1.97568707215,2015_Jul_08_1553,None,KRITL,001,31011,
,,,,,,,,"('SUBTRACT', 'THIRD', 'x', 'y')",third,2,"(3, 1)",1,1,2,9,0,SUBTRACT,0,BUxy,,,,,0,7,7,0,,,,,,space,0.965131160599,1,1,1.78374572303,2015_Jul_08_1553,None,KRITL,001,31011,
,,,,,,,,"('INCREASE', 'DIVIDE', 'HALF', 'x', 'y')",DIVIDE,3,"(2, 1, 2)",2,2,2,4,half,increase,0,UBUxy,,,,,0,8,8,7,,,,,,space,2.34454554076,2,1,3.28443357385,2015_Jul_08_1553,None,KRITL,001,31011,
,,,,,,,,"('TRIPLE', 'SUBTRACT', 'x', 'y')",SUBTRACT,2,"(2, 6)",6,6,6,8,0,triple,0,UBxy,,,,,0,9,9,3,,,,,,space,1.31381675486,6,1,2.85875768299,2015_Jul_08_1553,None,KRITL,001,31011,
,,,,,,,,"('INCREASE', 'TRIPLE', 'HALF', 'ADD', 'x', 'y')",triple,4,"(4, 2, 6, 7)",7,7,2,2,half,increase,ADD,UUUBxy,,,,,0,10,10,17,,,,,,space,6.48286637285,7,1,4.9040046531,2015_Jul_08_1553,None,KRITL,001,31011,
,,,,,,,,"('TRIPLE', 'HALF', 'TIMES', 'x', 'y')",half,3,"(6, 3, 9)",9,9,3,2,TIMES,triple,0,UUBxy,,,,,0,11,11,9,,,,,,space,3.18844907578,9,1,3.25537235809,2015_Jul_08_1553,None,KRITL,001,31011,
,,,,,,,,"('ADD', 'DECREASE', 'HALF', 'x', 'y')",decrease,3,"(3, 2, 6)",6,6,4,6,half,ADD,0,BUUxy,,,,,0,12,12,4,,,,,,space,1.62491360307,6,1,4.09730350581,2015_Jul_08_1553,None,KRITL,001,31011,
,,,,,,,,"('INCREASE', 'HALF', 'TIMES', 'TRIPLE', 'x', 'y')",half,4,"(6, 12, 6, 7)",7,7,2,2,TIMES,increase,triple,UUBUxy,,,,,0,13,13,14,,,,,,space,5.49145269682,7,1,4.66017230043,2015_Jul_08_1553,None,KRITL,001,31011,
,,,,,,,,"('TIMES', 'THIRD', 'x', 'y')",third,2,"(1, 4)",4,4,4,3,0,TIMES,0,BUxy,,,,,0,14,14,1,,,,,,space,1.05885735223,4,1,2.39036084959,2015_Jul_08_1553,None,KRITL,001,31011,
,,,,,,,,"('SUBTRACT', 'DOUBLE', 'DECREASE', 'x', 'y')",double,3,"(8, 16, 7)",7,7,9,9,decrease,SUBTRACT,0,BUUxy,,,,,0,15,15,5,,,,,,space,1.82965622158,7,1,3.22103581128,2015_Jul_08_1553,None,KRITL,001,31011,
,,,,,,,,"('DECREASE', 'DIVIDE', 'TRIPLE', 'DOUBLE', 'x', 'y')",DIVIDE,4,"(6, 18, 2, 1)",1,1,9,3,triple,decrease,double,UBUUxy,,,,,0,16,16,12,,,,,,space,4.68854269067,3,0,6.93325099887,2015_Jul_08_1553,None,KRITL,001,31011,
,,,,,,,,"('DOUBLE', 'TIMES', 'THIRD', 'x', 'y')",TIMES,3,"(1, 4, 8)",8,8,4,3,third,double,0,UBUxy,,,,,0,17,17,6,,,,,,space,5.71768579759,8,1,3.46245727398,2015_Jul_08_1553,None,KRITL,001,31011,
