operationc,operationb,operationa,correctresponse,valuey,operationd,condition,valuex,Rule,Operatora,Length,Intermediate,CorrectResponse,Result,Y,X,Operatorc,Operatorb,Operatord,Structure,practice_trials.thisRepN,practice_trials.thisTrialN,practice_trials.thisN,practice_trials.thisIndex,block.thisRepN,block.thisTrialN,block.thisN,block.thisIndex,practice_encoding.keys,practice_encoding.rt,practice_execution.keys,practice_execution.corr,practice_execution.rt,encoding.keys,encoding.rt,execution.keys,execution.corr,execution.rt,date,frameRate,expName,session,participant,
increase,DIVIDE,triple,3,3,0,3,2,,,,,,,,,,,,,0,0,0,4,,,,,['space'],[4.984156656777486],None,0,,,,,,,2015_Jul_16_1335,360.287380426,KRITL,001,31025,
increase,DIVIDE,double,9,8,triple,4,8,,,,,,,,,,,,,0,1,1,5,,,,,['space'],[14.914928432903253],1,0,3.28506280704,,,,,,2015_Jul_16_1335,360.287380426,KRITL,001,31025,
ADD,triple ,half,8,2,0,3,4,,,,,,,,,,,,,0,2,2,3,,,,,['space'],[9.709497416988597],8,1,13.4639666599,,,,,,2015_Jul_16_1335,360.287380426,KRITL,001,31025,
0,ADD,decrease,7,5,0,2,3,,,,,,,,,,,,,0,3,3,0,,,,,['space'],[5.7889303964038845],5,0,6.27802535141,,,,,,2015_Jul_16_1335,360.287380426,KRITL,001,31025,
0,decrease,TIMES,8,3,0,2,3,,,,,,,,,,,,,0,4,4,1,,,,,['space'],[7.375264811387751],3,0,5.15802212115,,,,,,2015_Jul_16_1335,360.287380426,KRITL,001,31025,
0,ADD,half,7,5,0,2,4,,,,,,,,,,,,,0,5,5,2,,,,,['space'],[11.19895646092482],7,1,2.9516288702,,,,,,2015_Jul_16_1335,360.287380426,KRITL,001,31025,
,,,,,,,,"('HALF', 'SUBTRACT', 'TRIPLE', 'x', 'y')",SUBTRACT,3,"(9, 2, 1)",1,1,7,3,triple,half,0,UBUxy,,,,,0,0,0,6,,,,,,space,12.7600445256,2,0,5.54144574099,2015_Jul_16_1335,360.287380426,KRITL,001,31025,
,,,,,,,,"('DIVIDE', 'INCREASE', 'DOUBLE', 'THIRD', 'x', 'y')",increase,4,"(2, 4, 5, 1)",1,1,5,6,double,DIVIDE,third,BUUUxy,,,,,0,1,1,11,,,,,,space,11.2683287463,1,1,4.95064713042,2015_Jul_16_1335,360.287380426,KRITL,001,31025,
,,,,,,,,"('DOUBLE', 'TRIPLE', 'DIVIDE', 'DECREASE', 'x', 'y')",triple,4,"(8, 1, 3, 6)",6,6,8,9,DIVIDE,double,decrease,UUBUxy,,,,,0,2,2,15,,,,,,space,8.26266381008,6,1,6.29411643933,2015_Jul_16_1335,360.287380426,KRITL,001,31025,
,,,,,,,,"('DOUBLE', 'SUBTRACT', 'x', 'y')",SUBTRACT,2,"(1, 2)",2,2,7,8,0,double,0,UBxy,,,,,0,3,3,2,,,,,,space,3.02743806981,2,1,2.66361913287,2015_Jul_16_1335,360.287380426,KRITL,001,31025,
,,,,,,,,"('ADD', 'THIRD', 'INCREASE', 'HALF', 'x', 'y')",third,4,"(2, 3, 1, 7)",7,7,6,4,increase,ADD,half,BUUUxy,,,,,0,4,4,10,,,,,,space,7.8931867807,7,1,6.4389492339,2015_Jul_16_1335,360.287380426,KRITL,001,31025,
,,,,,,,,"('DOUBLE', 'TRIPLE', 'SUBTRACT', 'x', 'y')",triple,3,"(1, 3, 6)",6,6,3,4,SUBTRACT,double,0,UUBxy,,,,,0,5,5,9,,,,,,space,3.7338085652,6,1,5.20734864219,2015_Jul_16_1335,360.287380426,KRITL,001,31025,
,,,,,,,,"('DECREASE', 'TIMES', 'DOUBLE', 'THIRD', 'x', 'y')",TIMES,4,"(1, 2, 8, 7)",7,7,4,3,double,decrease,third,UBUUxy,,,,,0,6,6,13,,,,,,space,4.77057333398,7,1,5.22425721925,2015_Jul_16_1335,360.287380426,KRITL,001,31025,
,,,,,,,,"('DECREASE', 'HALF', 'TRIPLE', 'DIVIDE', 'x', 'y')",half,4,"(4, 12, 6, 5)",5,5,2,8,triple,decrease,DIVIDE,UUUBxy,,,,,0,7,7,16,,,,,,space,11.2345588142,1,0,7.87850345766,2015_Jul_16_1335,360.287380426,KRITL,001,31025,
,,,,,,,,"('DECREASE', 'THIRD', 'TIMES', 'HALF', 'x', 'y')",third,4,"(2, 12, 4, 3)",3,3,6,4,TIMES,decrease,half,UUBUxy,,,,,0,8,8,14,,,,,,space,9.78286852113,None,0,,2015_Jul_16_1335,360.287380426,KRITL,001,31025,
,,,,,,,,"('SUBTRACT', 'HALF', 'TRIPLE', 'x', 'y')",half,3,"(12, 6, 2)",2,2,4,4,triple,SUBTRACT,0,BUUxy,,,,,0,9,9,5,,,,,,space,7.89929793116,2,1,5.27032849786,2015_Jul_16_1335,360.287380426,KRITL,001,31025,
,,,,,,,,"('HALF', 'TIMES', 'x', 'y')",TIMES,2,"(16, 8)",8,8,4,4,0,half,0,UBxy,,,,,0,10,10,3,,,,,,space,2.7075623391,8,1,2.2141910502,2015_Jul_16_1335,360.287380426,KRITL,001,31025,
,,,,,,,,"('DIVIDE', 'DOUBLE', 'x', 'y')",double,2,"(12, 2)",2,2,6,6,0,DIVIDE,0,BUxy,,,,,0,11,11,1,,,,,,space,1.25458610036,2,1,1.97418253652,2015_Jul_16_1335,360.287380426,KRITL,001,31025,
,,,,,,,,"('ADD', 'DOUBLE', 'x', 'y')",double,2,"(4, 8)",8,8,4,2,0,ADD,0,BUxy,,,,,0,12,12,0,,,,,,space,1.15677860689,8,1,2.21441415731,2015_Jul_16_1335,360.287380426,KRITL,001,31025,
,,,,,,,,"('DOUBLE', 'DECREASE', 'TRIPLE', 'DIVIDE', 'x', 'y')",decrease,4,"(1, 3, 2, 4)",4,4,4,4,triple,double,DIVIDE,UUUBxy,,,,,0,13,13,17,,,,,,space,4.08872272198,4,1,6.66324956894,2015_Jul_16_1335,360.287380426,KRITL,001,31025,
,,,,,,,,"('DIVIDE', 'DOUBLE', 'THIRD', 'x', 'y')",double,3,"(2, 4, 1)",1,1,4,6,third,DIVIDE,0,BUUxy,,,,,0,14,14,4,,,,,,space,2.03528925052,1,1,2.71052843196,2015_Jul_16_1335,360.287380426,KRITL,001,31025,
,,,,,,,,"('DECREASE', 'ADD', 'DOUBLE', 'THIRD', 'x', 'y')",ADD,4,"(3, 6, 10, 9)",9,9,4,9,double,decrease ,third,UBUUxy,,,,,0,15,15,12,,,,,,space,2.99867983545,9,1,7.14211068235,2015_Jul_16_1335,360.287380426,KRITL,001,31025,
,,,,,,,,"('INCREASE', 'DIVIDE', 'THIRD', 'x', 'y')",DIVIDE,3,"(3, 1, 2)",2,2,3,9,third,increase,0,UBUxy,,,,,0,16,16,7,,,,,,space,1.33111047464,2,1,5.41108274365,2015_Jul_16_1335,360.287380426,KRITL,001,31025,
,,,,,,,,"('DOUBLE', 'DECREASE', 'SUBTRACT', 'x', 'y')",decrease,3,"(5, 4, 8)",8,8,2,7,SUBTRACT,double,0,UUBxy,,,,,0,17,17,8,,,,,,space,3.25415836432,8,1,1.97515674816,2015_Jul_16_1335,360.287380426,KRITL,001,31025,
,,,,,,,,"('DECREASE', 'TRIPLE', 'DIVIDE', 'DOUBLE', 'x', 'y')",triple,4,"(6, 2, 6, 5)",5,5,3,3,DIVIDE,decrease,double,UUBUxy,,,,,0,0,0,14,,,,,,space,6.57701798168,5,1,5.79799053026,2015_Jul_16_1335,360.287380426,KRITL,001,31025,
,,,,,,,,"('DECREASE', 'TRIPLE', 'HALF', 'SUBTRACT', 'x', 'y')",triple,4,"(4, 2, 6, 5)",5,5,2,6,half,decrease,SUBTRACT,UUUBxy,,,,,0,1,1,16,,,,,,space,3.89078495724,5,1,5.03116895471,2015_Jul_16_1335,360.287380426,KRITL,001,31025,
,,,,,,,,"('TIMES', 'HALF', 'INCREASE', 'x', 'y')",half,3,"(6, 3, 9)",9,9,3,5,increase,TIMES,0,BUUxy,,,,,0,2,2,5,,,,,,space,1.86237643989,9,1,3.99270898242,2015_Jul_16_1335,360.287380426,KRITL,001,31025,
,,,,,,,,"('SUBTRACT', 'TRIPLE', 'DECREASE', 'DOUBLE', 'x', 'y')",triple,4,"(4, 3, 9, 1)",1,1,8,2,decrease,SUBTRACT,double,BUUUxy,,,,,0,3,3,11,,,,,,space,11.8620014009,1,1,3.95798502788,2015_Jul_16_1335,360.287380426,KRITL,001,31025,
,,,,,,,,"('HALF', 'TRIPLE', 'INCREASE', 'SUBTRACT', 'x', 'y')",triple,4,"(1, 2, 6, 3)",3,3,2,3,increase,half,SUBTRACT,UUUBxy,,,,,0,4,4,17,,,,,,space,11.2852301374,3,1,6.27668191803,2015_Jul_16_1335,360.287380426,KRITL,001,31025,
,,,,,,,,"('DIVIDE', 'THIRD', 'x', 'y')",third,2,"(3, 1)",1,1,3,9,0,DIVIDE,0,BUxy,,,,,0,5,5,0,,,,,,space,0.806567493491,1,1,1.87746730984,2015_Jul_16_1335,360.287380426,KRITL,001,31025,
,,,,,,,,"('THIRD', 'DIVIDE', 'x', 'y')",DIVIDE,2,"(3, 1)",1,1,2,6,0,third,0,UBxy,,,,,0,6,6,3,,,,,,space,1.12713923628,1,1,3.31868217603,2015_Jul_16_1335,360.287380426,KRITL,001,31025,
,,,,,,,,"('DOUBLE', 'THIRD', 'TIMES', 'x', 'y')",third,3,"(12, 4, 8)",8,8,6,2,TIMES,double,0,UUBxy,,,,,0,7,7,9,,,,,,space,1.46077814426,8,1,3.4787724865,2015_Jul_16_1335,360.287380426,KRITL,001,31025,
,,,,,,,,"('TIMES', 'DOUBLE', 'x', 'y')",double,2,"(4, 8)",8,8,2,2,0,TIMES,0,BUxy,,,,,0,8,8,1,,,,,,space,0.692521428718,8,1,1.73494771184,2015_Jul_16_1335,360.287380426,KRITL,001,31025,
,,,,,,,,"('INCREASE', 'ADD', 'HALF', 'TRIPLE', 'x', 'y')",ADD,4,"(6, 3, 6, 7)",7,7,3,2,half,increase,triple,UBUUxy,,,,,0,9,9,13,,,,,,space,2.27615357845,7,1,5.57499496128,2015_Jul_16_1335,360.287380426,KRITL,001,31025,
,,,,,,,,"('SUBTRACT', 'TRIPLE', 'DECREASE', 'x', 'y')",triple,3,"(4, 12, 3)",3,3,9,5,decrease,SUBTRACT,0,BUUxy,,,,,0,10,10,4,,,,,,space,1.22072480386,3,1,9.65526151269,2015_Jul_16_1335,360.287380426,KRITL,001,31025,
,,,,,,,,"('THIRD', 'DIVIDE', 'DECREASE', 'x', 'y')",DIVIDE,3,"(6, 3, 1)",1,1,2,7,decrease,third,0,UBUxy,,,,,0,11,11,6,,,,,,space,4.01943085098,1,1,4.03734614761,2015_Jul_16_1335,360.287380426,KRITL,001,31025,
,,,,,,,,"('SUBTRACT', 'DOUBLE', 'TRIPLE', 'DECREASE', 'x', 'y')",double,4,"(2, 6, 12, 8)",8,8,4,3,triple,SUBTRACT,decrease,BUUUxy,,,,,0,12,12,10,,,,,,space,3.35147002614,8,1,5.69996437815,2015_Jul_16_1335,360.287380426,KRITL,001,31025,
,,,,,,,,"('DOUBLE', 'DIVIDE', 'TRIPLE', 'INCREASE', 'x', 'y')",DIVIDE,4,"(5, 15, 3, 6)",6,6,5,4,triple,double,increase,UBUUxy,,,,,0,13,13,12,,,,,,space,5.73414801652,6,1,6.597984234,2015_Jul_16_1335,360.287380426,KRITL,001,31025,
,,,,,,,,"('THIRD', 'TIMES', 'HALF', 'x', 'y')",TIMES,3,"(3, 18, 6)",6,6,6,6,half,third,0,UBUxy,,,,,0,14,14,7,,,,,,space,1.18715710539,6,1,3.43022307631,2015_Jul_16_1335,360.287380426,KRITL,001,31025,
,,,,,,,,"('DOUBLE', 'DECREASE', 'ADD', 'x', 'y')",decrease,3,"(4, 3, 6)",6,6,2,2,ADD,double,0,UUBxy,,,,,0,15,15,8,,,,,,space,1.57465448338,6,1,2.18096964683,2015_Jul_16_1335,360.287380426,KRITL,001,31025,
,,,,,,,,"('THIRD', 'DECREASE', 'TIMES', 'HALF', 'x', 'y')",decrease,4,"(4, 16, 15, 5)",5,5,4,8,TIMES,third,half,UUBUxy,,,,,0,16,16,15,,,,,,space,3.57211544219,3,0,4.406969976,2015_Jul_16_1335,360.287380426,KRITL,001,31025,
,,,,,,,,"('INCREASE', 'SUBTRACT', 'x', 'y')",SUBTRACT,2,"(3, 4)",4,4,3,6,0,increase,0,UBxy,,,,,0,17,17,2,,,,,,space,3.27161067944,4,1,2.74022323715,2015_Jul_16_1335,360.287380426,KRITL,001,31025,
,,,,,,,,"('THIRD', 'DOUBLE', 'INCREASE', 'TIMES', 'x', 'y')",double,4,"(8, 9, 18, 6)",6,6,4,2,increase,third,TIMES,UUUBxy,,,,,0,0,0,17,,,,,,space,9.12951231589,6,1,4.67938616798,2015_Jul_16_1335,360.287380426,KRITL,001,31025,
,,,,,,,,"('INCREASE', 'ADD', 'x', 'y')",ADD,2,"(5, 6)",6,6,2,3,0,increase,0,UBxy,,,,,0,1,1,3,,,,,,space,1.01087168157,6,1,1.47856614664,2015_Jul_16_1335,360.287380426,KRITL,001,31025,
,,,,,,,,"('HALF', 'ADD', 'TRIPLE', 'x', 'y')",ADD,3,"(9, 12, 6)",6,6,3,3,triple,half,0,UBUxy,,,,,0,2,2,6,,,,,,space,4.27668020708,9,0,18.6161517238,2015_Jul_16_1335,360.287380426,KRITL,001,31025,
,,,,,,,,"('DIVIDE', 'DECREASE', 'TRIPLE', 'x', 'y')",decrease,3,"(9, 8, 4)",4,4,2,3,triple,DIVIDE,0,BUUxy,,,,,0,3,3,5,,,,,,space,6.83715506937,4,1,4.00652006612,2015_Jul_16_1335,360.287380426,KRITL,001,31025,
,,,,,,,,"('ADD', 'DOUBLE', 'DECREASE', 'THIRD', 'x', 'y')",double,4,"(2, 1, 2, 8)",8,8,6,6,decrease,ADD,third,BUUUxy,,,,,0,4,4,10,,,,,,space,4.67642589234,8,1,5.47945481105,2015_Jul_16_1335,360.287380426,KRITL,001,31025,
,,,,,,,,"('INCREASE', 'SUBTRACT', 'HALF', 'x', 'y')",SUBTRACT,3,"(4, 2, 3)",3,3,2,8,half,increase,0,UBUxy,,,,,0,5,5,7,,,,,,space,4.29364969376,3,1,3.34998937504,2015_Jul_16_1335,360.287380426,KRITL,001,31025,
,,,,,,,,"('DECREASE', 'DIVIDE', 'x', 'y')",DIVIDE,2,"(2, 1)",1,1,4,8,0,decrease,0,UBxy,,,,,0,6,6,2,,,,,,space,1.1916880278,3,0,2.37429949667,2015_Jul_16_1335,360.287380426,KRITL,001,31025,
,,,,,,,,"('SUBTRACT', 'DECREASE', 'x', 'y')",decrease,2,"(5, 3)",3,3,2,6,0,SUBTRACT,0,BUxy,,,,,0,7,7,1,,,,,,space,0.725522120294,3,1,4.02175841948,2015_Jul_16_1335,360.287380426,KRITL,001,31025,
,,,,,,,,"('SUBTRACT', 'DECREASE', 'TRIPLE', 'DOUBLE', 'x', 'y')",decrease,4,"(6, 18, 17, 8)",8,8,9,3,triple,SUBTRACT,double,BUUUxy,,,,,0,8,8,11,,,,,,space,6.309485851,8,1,7.62238264034,2015_Jul_16_1335,360.287380426,KRITL,001,31025,
,,,,,,,,"('THIRD', 'INCREASE', 'DIVIDE', 'DOUBLE', 'x', 'y')",increase,4,"(18, 2, 3, 1)",1,1,9,9,DIVIDE,third,double,UUBUxy,,,,,0,9,9,15,,,,,,space,1.71783484804,1,1,4.58354968223,2015_Jul_16_1335,360.287380426,KRITL,001,31025,
,,,,,,,,"('HALF', 'TRIPLE', 'INCREASE', 'DIVIDE', 'x', 'y')",triple,4,"(3, 4, 12, 6)",6,6,3,9,increase,half,DIVIDE,UUUBxy,,,,,0,10,10,16,,,,,,space,4.29194490897,2,0,4.02193293578,2015_Jul_16_1335,360.287380426,KRITL,001,31025,
,,,,,,,,"('DOUBLE', 'ADD', 'INCREASE', 'THIRD', 'x', 'y')",ADD,4,"(1, 2, 4, 8)",8,8,2,3,increase,double,third,UBUUxy,,,,,0,11,11,12,,,,,,space,3.87721306353,8,1,4.3580900114,2015_Jul_16_1335,360.287380426,KRITL,001,31025,
,,,,,,,,"('INCREASE', 'TRIPLE', 'DIVIDE', 'x', 'y')",triple,3,"(2, 6, 7)",7,7,3,6,DIVIDE,increase,0,UUBxy,,,,,0,12,12,8,,,,,,space,2.58142948018,7,1,3.14393797074,2015_Jul_16_1335,360.287380426,KRITL,001,31025,
,,,,,,,,"('ADD', 'HALF', 'THIRD', 'x', 'y')",half,3,"(2, 1, 9)",9,9,8,6,third,ADD,0,BUUxy,,,,,0,13,13,4,,,,,,space,2.69301418065,9,1,4.38673258592,2015_Jul_16_1335,360.287380426,KRITL,001,31025,
,,,,,,,,"('THIRD', 'DOUBLE', 'ADD', 'DECREASE', 'x', 'y')",double,4,"(5, 12, 24, 8)",8,8,7,6,ADD,third,decrease,UUBUxy,,,,,0,14,14,14,,,,,,space,5.41428768431,8,1,12.3410517448,2015_Jul_16_1335,360.287380426,KRITL,001,31025,
,,,,,,,,"('DIVIDE', 'INCREASE', 'x', 'y')",increase,2,"(4, 2)",2,2,2,3,0,DIVIDE,0,BUxy,,,,,0,15,15,0,,,,,,space,0.95182254909,2,1,1.52530366693,2015_Jul_16_1335,360.287380426,KRITL,001,31025,
,,,,,,,,"('THIRD', 'TIMES', 'DOUBLE', 'DECREASE', 'x', 'y')",TIMES,4,"(1, 2, 6, 2)",2,2,3,2,double,third,decrease,UBUUxy,,,,,0,16,16,13,,,,,,space,9.03098177743,2,1,5.12591420025,2015_Jul_16_1335,360.287380426,KRITL,001,31025,
,,,,,,,,"('THIRD', 'HALF', 'ADD', 'x', 'y')",half,3,"(6, 3, 1)",1,1,3,3,ADD,third,0,UUBxy,,,,,0,17,17,9,,,,,,space,5.25134043924,1,1,3.35030487314,2015_Jul_16_1335,360.287380426,KRITL,001,31025,
,,,,,,,,"('ADD', 'DECREASE', 'THIRD', 'DOUBLE', 'x', 'y')",decrease,4,"(18, 6, 5, 9)",9,9,4,9,third,ADD,double,BUUUxy,,,,,0,0,0,10,,,,,,space,6.96894841606,9,1,9.3015638372,2015_Jul_16_1335,360.287380426,KRITL,001,31025,
,,,,,,,,"('ADD', 'TRIPLE', 'DOUBLE', 'DECREASE', 'x', 'y')",triple,4,"(1, 2, 6, 8)",8,8,2,2,double,ADD,decrease,BUUUxy,,,,,0,1,1,11,,,,,,space,16.5332595574,8,1,4.59686117023,2015_Jul_16_1335,360.287380426,KRITL,001,31025,
,,,,,,,,"('HALF', 'INCREASE', 'TIMES', 'x', 'y')",increase,3,"(9, 10, 5)",5,5,3,3,TIMES,half,0,UUBxy,,,,,0,2,2,9,,,,,,space,1.20691474674,5,1,3.89448299201,2015_Jul_16_1335,360.287380426,KRITL,001,31025,
,,,,,,,,"('DECREASE', 'DOUBLE', 'TIMES', 'THIRD', 'x', 'y')",double,4,"(1, 3, 6, 5)",5,5,3,3,TIMES,decrease,third,UUBUxy,,,,,0,3,3,14,,,,,,space,1.89414696259,7,0,4.35541135717,2015_Jul_16_1335,360.287380426,KRITL,001,31025,
,,,,,,,,"('DECREASE', 'TRIPLE', 'SUBTRACT', 'DOUBLE', 'x', 'y')",triple,4,"(6, 3, 9, 8)",8,8,3,3,SUBTRACT,decrease,double,UUBUxy,,,,,0,4,4,15,,,,,,space,5.01635731084,8,1,4.05363330976,2015_Jul_16_1335,360.287380426,KRITL,001,31025,
,,,,,,,,"('DOUBLE', 'SUBTRACT', 'INCREASE', 'x', 'y')",SUBTRACT,3,"(4, 1, 2)",2,2,3,3,increase,double,0,UBUxy,,,,,0,5,5,6,,,,,,space,1.4130065293,2,1,2.83926432137,2015_Jul_16_1335,360.287380426,KRITL,001,31025,
,,,,,,,,"('INCREASE', 'HALF', 'THIRD', 'TIMES', 'x', 'y')",half,4,"(12, 4, 2, 3)",3,3,4,3,third,increase,TIMES,UUUBxy,,,,,0,6,6,16,,,,,,space,8.46903481874,3,1,4.7581809652,2015_Jul_16_1335,360.287380426,KRITL,001,31025,
,,,,,,,,"('THIRD', 'HALF', 'INCREASE', 'SUBTRACT', 'x', 'y')",half,4,"(5, 6, 3, 1)",1,1,2,7,increase,third,SUBTRACT,UUUBxy,,,,,0,7,7,17,,,,,,space,8.34367051595,1,1,4.86965924493,2015_Jul_16_1335,360.287380426,KRITL,001,31025,
,,,,,,,,"('DECREASE', 'ADD', 'THIRD', 'HALF', 'x', 'y')",ADD,4,"(3, 1, 7, 6)",6,6,6,6,third,decrease,half,UBUUxy,,,,,0,8,8,12,,,,,,space,1.65470477146,8,0,6.6152254186,2015_Jul_16_1335,360.287380426,KRITL,001,31025,
,,,,,,,,"('INCREASE', 'ADD', 'HALF', 'x', 'y')",ADD,3,"(1, 4, 5)",5,5,3,2,half,increase,0,UBUxy,,,,,0,9,9,7,,,,,,space,3.45990590492,5,1,2.66213540206,2015_Jul_16_1335,360.287380426,KRITL,001,31025,
,,,,,,,,"('DECREASE', 'TIMES', 'x', 'y')",TIMES,2,"(9, 8)",8,8,3,3,0,decrease,0,UBxy,,,,,0,10,10,2,,,,,,space,1.23824487239,8,1,1.52693556549,2015_Jul_16_1335,360.287380426,KRITL,001,31025,
,,,,,,,,"('ADD', 'DOUBLE', 'DECREASE', 'x', 'y')",double,3,"(1, 2, 7)",7,7,5,2,decrease,ADD,0,BUUxy,,,,,0,11,11,4,,,,,,space,2.8060371008,7,1,2.67818884923,2015_Jul_16_1335,360.287380426,KRITL,001,31025,
,,,,,,,,"('DOUBLE', 'THIRD', 'ADD', 'x', 'y')",third,3,"(9, 3, 6)",6,6,4,5,ADD,double,0,UUBxy,,,,,0,12,12,8,,,,,,space,1.07474807203,6,1,2.13329555569,2015_Jul_16_1335,360.287380426,KRITL,001,31025,
,,,,,,,,"('ADD', 'TRIPLE', 'HALF', 'x', 'y')",triple,3,"(2, 6, 8)",8,8,2,4,half,ADD,0,BUUxy,,,,,0,13,13,5,,,,,,space,2.43782137948,8,1,2.99931185824,2015_Jul_16_1335,360.287380426,KRITL,001,31025,
,,,,,,,,"('ADD', 'DECREASE', 'x', 'y')",decrease,2,"(2, 7)",7,7,5,3,0,ADD,0,BUxy,,,,,0,14,14,0,,,,,,space,0.917397667567,7,1,1.35007389568,2015_Jul_16_1335,360.287380426,KRITL,001,31025,
,,,,,,,,"('DECREASE', 'SUBTRACT', 'DOUBLE', 'THIRD', 'x', 'y')",SUBTRACT,4,"(3, 6, 4, 3)",3,3,2,9,double,decrease,third,UBUUxy,,,,,0,15,15,13,,,,,,space,3.78192100022,3,1,7.87574165154,2015_Jul_16_1335,360.287380426,KRITL,001,31025,
,,,,,,,,"('DIVIDE', 'DECREASE', 'x', 'y')",decrease,2,"(8, 2)",2,2,4,9,0,DIVIDE,0,BUxy,,,,,0,16,16,1,,,,,,space,0.854717569309,2,1,1.54408230599,2015_Jul_16_1335,360.287380426,KRITL,001,31025,
,,,,,,,,"('HALF', 'ADD', 'x', 'y')",ADD,2,"(12, 6)",6,6,8,4,0,half,0,UBxy,,,,,0,17,17,3,,,,,,space,0.916177764375,6,1,1.43000065358,2015_Jul_16_1335,360.287380426,KRITL,001,31025,
,,,,,,,,"('DECREASE', 'HALF', 'DIVIDE', 'x', 'y')",half,3,"(4, 2, 1)",1,1,2,8,DIVIDE,decrease,0,UUBxy,,,,,0,0,0,8,,,,,,space,1.8339350724,1,1,4.08716405183,2015_Jul_16_1335,360.287380426,KRITL,001,31025,
,,,,,,,,"('TRIPLE', 'SUBTRACT', 'INCREASE', 'HALF', 'x', 'y')",SUBTRACT,4,"(3, 4, 1, 3)",3,3,3,6,increase,triple,half,UBUUxy,,,,,0,1,1,13,,,,,,space,14.0227254451,3,1,10.2474699413,2015_Jul_16_1335,360.287380426,KRITL,001,31025,
,,,,,,,,"('DOUBLE', 'TIMES', 'THIRD', 'x', 'y')",TIMES,3,"(1, 4, 8)",8,8,4,3,third,double,0,UBUxy,,,,,0,2,2,6,,,,,,space,1.71804324104,8,1,3.11129589309,2015_Jul_16_1335,360.287380426,KRITL,001,31025,
,,,,,,,,"('TIMES', 'DECREASE', 'THIRD', 'DOUBLE', 'x', 'y')",decrease,4,"(6, 2, 1, 2)",2,2,2,3,third,TIMES,double,BUUUxy,,,,,0,3,3,11,,,,,,space,4.99524015325,2,1,5.54230223966,2015_Jul_16_1335,360.287380426,KRITL,001,31025,
,,,,,,,,"('SUBTRACT', 'DOUBLE', 'DECREASE', 'x', 'y')",double,3,"(8, 16, 7)",7,7,9,9,decrease,SUBTRACT,0,BUUxy,,,,,0,4,4,5,,,,,,space,7.01468024336,7,1,5.90990612733,2015_Jul_16_1335,360.287380426,KRITL,001,31025,
,,,,,,,,"('TRIPLE', 'HALF', 'TIMES', 'x', 'y')",half,3,"(6, 3, 9)",9,9,3,2,TIMES,triple,0,UUBxy,,,,,0,5,5,9,,,,,,space,1.55833857736,9,1,3.60673537134,2015_Jul_16_1335,360.287380426,KRITL,001,31025,
,,,,,,,,"('INCREASE', 'DIVIDE', 'HALF', 'x', 'y')",DIVIDE,3,"(2, 1, 2)",2,2,2,4,half,increase,0,UBUxy,,,,,0,6,6,7,,,,,,space,1.28748721497,2,1,3.36470075758,2015_Jul_16_1335,360.287380426,KRITL,001,31025,
,,,,,,,,"('INCREASE', 'TRIPLE', 'HALF', 'ADD', 'x', 'y')",triple,4,"(4, 2, 6, 7)",7,7,2,2,half,increase,ADD,UUUBxy,,,,,0,7,7,17,,,,,,space,5.75029693438,7,1,3.63752757614,2015_Jul_16_1335,360.287380426,KRITL,001,31025,
,,,,,,,,"('TRIPLE', 'SUBTRACT', 'x', 'y')",SUBTRACT,2,"(2, 6)",6,6,6,8,0,triple,0,UBxy,,,,,0,8,8,3,,,,,,space,1.01666391204,6,1,1.52393251625,2015_Jul_16_1335,360.287380426,KRITL,001,31025,
,,,,,,,,"('INCREASE', 'TIMES', 'x', 'y')",TIMES,2,"(8, 9)",9,9,4,2,0,increase,0,UBxy,,,,,0,9,9,2,,,,,,space,1.4007927831,9,1,1.97168182051,2015_Jul_16_1335,360.287380426,KRITL,001,31025,
,,,,,,,,"('ADD', 'DECREASE', 'HALF', 'x', 'y')",decrease,3,"(3, 2, 6)",6,6,4,6,half,ADD,0,BUUxy,,,,,0,10,10,4,,,,,,space,2.61197051838,6,1,3.19193919441,2015_Jul_16_1335,360.287380426,KRITL,001,31025,
,,,,,,,,"('DIVIDE', 'DECREASE', 'THIRD', 'DOUBLE', 'x', 'y')",decrease,4,"(12, 4, 3, 1)",1,1,3,6,third,DIVIDE,double,BUUUxy,,,,,0,11,11,10,,,,,,space,7.76360192077,1,1,5.16028946439,2015_Jul_16_1335,360.287380426,KRITL,001,31025,
,,,,,,,,"('INCREASE', 'HALF', 'TIMES', 'TRIPLE', 'x', 'y')",half,4,"(6, 12, 6, 7)",7,7,2,2,TIMES,increase,triple,UUBUxy,,,,,0,12,12,14,,,,,,space,1.65483822509,7,1,9.62212394559,2015_Jul_16_1335,360.287380426,KRITL,001,31025,
,,,,,,,,"('DECREASE', 'HALF', 'TRIPLE', 'ADD', 'x', 'y')",half,4,"(4, 12, 6, 5)",5,5,2,2,triple,decrease,ADD,UUUBxy,,,,,0,13,13,16,,,,,,space,1.6375378418,7,0,4.48547562366,2015_Jul_16_1335,360.287380426,KRITL,001,31025,
,,,,,,,,"('THIRD', 'INCREASE', 'SUBTRACT', 'HALF', 'x', 'y')",increase,4,"(4, 2, 3, 1)",1,1,2,8,SUBTRACT,third,half,UUBUxy,,,,,0,14,14,15,,,,,,space,1.47802993673,2,0,11.781699604,2015_Jul_16_1335,360.287380426,KRITL,001,31025,
,,,,,,,,"('TIMES', 'THIRD', 'x', 'y')",third,2,"(1, 4)",4,4,4,3,0,TIMES,0,BUxy,,,,,0,15,15,1,,,,,,space,0.775483401623,4,1,2.08561804265,2015_Jul_16_1335,360.287380426,KRITL,001,31025,
,,,,,,,,"('DECREASE', 'DIVIDE', 'TRIPLE', 'DOUBLE', 'x', 'y')",DIVIDE,4,"(6, 18, 2, 1)",1,1,9,3,triple,decrease,double,UBUUxy,,,,,0,16,16,12,,,,,,space,3.6533479927,3,0,4.63026222272,2015_Jul_16_1335,360.287380426,KRITL,001,31025,
,,,,,,,,"('SUBTRACT', 'THIRD', 'x', 'y')",third,2,"(3, 1)",1,1,2,9,0,SUBTRACT,0,BUxy,,,,,0,17,17,0,,,,,,space,0.901326426581,1,1,1.55759808073,2015_Jul_16_1335,360.287380426,KRITL,001,31025,
,,,,,,,,"('INCREASE', 'TIMES', 'TRIPLE', 'HALF', 'x', 'y')",TIMES,4,"(1, 3, 6, 7)",7,7,2,2,triple,increase,half,UBUUxy,,,,,0,0,0,13,,,,,,space,0.509994822685,1,0,0.00584869162412,2015_Jul_16_1335,360.287380426,KRITL,001,31025,
,,,,,,,,"('ADD', 'HALF', 'x', 'y')",half,2,"(2, 7)",7,7,5,4,0,ADD,0,BUxy,,,,,0,1,1,0,,,,,,space,0.389012590167,1,0,0.260773558926,2015_Jul_16_1335,360.287380426,KRITL,001,31025,
,,,,,,,,"('THIRD', 'INCREASE', 'HALF', 'TIMES', 'x', 'y')",increase,4,"(28, 14, 15, 5)",5,5,4,7,half,third,TIMES,UUUBxy,,,,,0,2,2,17,,,,,,space,0.212753514876,1,0,0.309199096766,2015_Jul_16_1335,360.287380426,KRITL,001,31025,
,,,,,,,,"('SUBTRACT', 'TRIPLE', 'x', 'y')",triple,2,"(12, 9)",9,9,3,4,0,SUBTRACT,0,BUxy,,,,,0,3,3,1,,,,,,space,0.390207855773,1,0,0.677563328034,2015_Jul_16_1335,360.287380426,KRITL,001,31025,
,,,,,,,,"('DOUBLE', 'DIVIDE', 'x', 'y')",DIVIDE,2,"(1, 2)",2,2,8,8,0,double,0,UBxy,,,,,0,4,4,2,,,,,,space,0.503561672522,4,0,0.183015936069,2015_Jul_16_1335,360.287380426,KRITL,001,31025,
,,,,,,,,"('TRIPLE', 'HALF', 'ADD', 'x', 'y')",half,3,"(6, 3, 9)",9,9,3,3,ADD,triple,0,UUBxy,,,,,0,5,5,8,,,,,,space,0.693407355619,5,0,0.117608934961,2015_Jul_16_1335,360.287380426,KRITL,001,31025,
,,,,,,,,"('SUBTRACT', 'INCREASE', 'HALF', 'x', 'y')",increase,3,"(4, 5, 3)",3,3,2,8,half,SUBTRACT,0,BUUxy,,,,,0,6,6,5,,,,,,space,0.901852370836,6,0,0.102871888259,2015_Jul_16_1335,360.287380426,KRITL,001,31025,
,,,,,,,,"('HALF', 'SUBTRACT', 'DECREASE', 'TRIPLE', 'x', 'y')",SUBTRACT,4,"(15, 14, 10, 5)",5,5,4,5,decrease,half,triple,UBUUxy,,,,,0,7,7,12,,,,,,space,0.243884486626,7,0,1.54083698704,2015_Jul_16_1335,360.287380426,KRITL,001,31025,
,,,,,,,,"('DIVIDE', 'DOUBLE', 'INCREASE', 'TRIPLE', 'x', 'y')",double,4,"(9, 10, 20, 5)",5,5,4,3,increase,DIVIDE,triple,BUUUxy,,,,,0,8,8,10,,,,,,space,0.565660391949,8,0,0.43799521141,2015_Jul_16_1335,360.287380426,KRITL,001,31025,
,,,,,,,,"('DIVIDE', 'TRIPLE', 'DECREASE', 'x', 'y')",triple,3,"(6, 18, 9)",9,9,2,7,decrease,DIVIDE,0,BUUxy,,,,,0,9,9,4,,,,,,space,0.996288277674,5,0,1.01440854541,2015_Jul_16_1335,360.287380426,KRITL,001,31025,
,,,,,,,,"('TRIPLE', 'INCREASE', 'DIVIDE', 'DOUBLE', 'x', 'y')",increase,4,"(16, 2, 3, 9)",9,9,8,8,DIVIDE,triple,double,UUBUxy,,,,,0,10,10,15,,,,,,space,0.599817339593,6,0,0.3095443653,2015_Jul_16_1335,360.287380426,KRITL,001,31025,
,,,,,,,,"('INCREASE', 'DIVIDE', 'TRIPLE', 'x', 'y')",DIVIDE,3,"(6, 2, 3)",3,3,3,2,triple,increase,0,UBUxy,,,,,0,11,11,7,,,,,,space,0.452172437159,3,1,0.326360893567,2015_Jul_16_1335,360.287380426,KRITL,001,31025,
,,,,,,,,"('DECREASE', 'THIRD', 'DOUBLE', 'ADD', 'x', 'y')",third,4,"(9, 18, 6, 5)",5,5,4,5,double,decrease,ADD,UUUBxy,,,,,0,12,12,16,,,,,,space,0.39162246442,5,1,0.295287067347,2015_Jul_16_1335,360.287380426,KRITL,001,31025,
,,,,,,,,"('INCREASE', 'DIVIDE', 'x', 'y')",DIVIDE,2,"(4, 5)",5,5,2,8,0,increase,0,UBxy,,,,,0,13,13,3,,,,,,space,0.502871477627,8,0,0.214268042677,2015_Jul_16_1335,360.287380426,KRITL,001,31025,
,,,,,,,,"('HALF', 'TIMES', 'DECREASE', 'x', 'y')",TIMES,3,"(8, 16, 8)",8,8,2,9,decrease,half,0,UBUxy,,,,,0,14,14,6,,,,,,space,0.342777403072,3,0,0.277962046472,2015_Jul_16_1335,360.287380426,KRITL,001,31025,
,,,,,,,,"('TRIPLE', 'INCREASE', 'SUBTRACT', 'x', 'y')",increase,3,"(1, 2, 6)",6,6,2,3,SUBTRACT,triple,0,UUBxy,,,,,0,15,15,9,,,,,,space,2.18326436517,6,1,2.51883150724,2015_Jul_16_1335,360.287380426,KRITL,001,31025,
,,,,,,,,"('TRIPLE', 'DOUBLE', 'SUBTRACT', 'INCREASE', 'x', 'y')",double,4,"(5, 1, 2, 6)",6,6,4,4,SUBTRACT,triple,increase,UUBUxy,,,,,0,16,16,14,,,,,,space,9.19036957421,6,1,3.66948288081,2015_Jul_16_1335,360.287380426,KRITL,001,31025,
,,,,,,,,"('TIMES', 'HALF', 'INCREASE', 'THIRD', 'x', 'y')",half,4,"(1, 2, 1, 9)",9,9,9,3,increase,TIMES,third,BUUUxy,,,,,0,17,17,11,,,,,,space,7.75060935276,9,1,3.52854111552,2015_Jul_16_1335,360.287380426,KRITL,001,31025,
,,,,,,,,"('DOUBLE', 'TIMES', 'x', 'y')",TIMES,2,"(4, 8)",8,8,2,2,0,double,0,UBxy,,,,,0,0,0,3,,,,,,space,0.953522543234,8,1,9.93988666021,2015_Jul_16_1335,360.287380426,KRITL,001,31025,
,,,,,,,,"('INCREASE', 'ADD', 'TRIPLE', 'x', 'y')",ADD,3,"(6, 8, 9)",9,9,2,2,triple,increase,0,UBUxy,,,,,0,1,1,6,,,,,,space,1.71925287857,7,0,3.28557506374,2015_Jul_16_1335,360.287380426,KRITL,001,31025,
,,,,,,,,"('TRIPLE', 'DECREASE', 'HALF', 'SUBTRACT', 'x', 'y')",decrease,4,"(4, 2, 1, 3)",3,3,5,9,half,triple,SUBTRACT,UUUBxy,,,,,0,2,2,17,,,,,,space,5.10988881259,7,0,8.8222701971,2015_Jul_16_1335,360.287380426,KRITL,001,31025,
,,,,,,,,"('INCREASE', 'DIVIDE', 'TRIPLE', 'HALF', 'x', 'y')",DIVIDE,4,"(2, 6, 2, 3)",3,3,3,4,triple,increase,half,UBUUxy,,,,,0,3,3,12,,,,,,space,2.9478733477,3,1,3.58862331613,2015_Jul_16_1335,360.287380426,KRITL,001,31025,
,,,,,,,,"('THIRD', 'INCREASE', 'ADD', 'DOUBLE', 'x', 'y')",increase,4,"(16, 20, 21, 7)",7,7,4,8,ADD,third,double,UUBUxy,,,,,0,4,4,14,,,,,,space,2.64347618692,7,1,9.94251672362,2015_Jul_16_1335,360.287380426,KRITL,001,31025,
,,,,,,,,"('DOUBLE', 'ADD', 'x', 'y')",ADD,2,"(4, 8)",8,8,2,2,0,double,0,UBxy,,,,,0,5,5,2,,,,,,space,0.789938142523,8,1,1.33420933677,2015_Jul_16_1335,360.287380426,KRITL,001,31025,
,,,,,,,,"('THIRD', 'INCREASE', 'SUBTRACT', 'x', 'y')",increase,3,"(2, 3, 1)",1,1,6,8,SUBTRACT,third,0,UUBxy,,,,,0,6,6,9,,,,,,space,1.06106359819,1,1,2.35955321087,2015_Jul_16_1335,360.287380426,KRITL,001,31025,
,,,,,,,,"('TRIPLE', 'DOUBLE', 'SUBTRACT', 'DECREASE', 'x', 'y')",double,4,"(4, 1, 2, 6)",6,6,3,5,SUBTRACT,triple,decrease,UUBUxy,,,,,0,7,7,15,,,,,,space,5.52487969496,6,1,5.46326380399,2015_Jul_16_1335,360.287380426,KRITL,001,31025,
,,,,,,,,"('SUBTRACT', 'INCREASE', 'x', 'y')",increase,2,"(6, 2)",2,2,4,5,0,SUBTRACT,0,BUxy,,,,,0,8,8,1,,,,,,space,0.805632633594,2,1,1.76657485741,2015_Jul_16_1335,360.287380426,KRITL,001,31025,
,,,,,,,,"('TIMES', 'THIRD', 'DOUBLE', 'x', 'y')",third,3,"(6, 2, 4)",4,4,2,3,double,TIMES,0,BUUxy,,,,,0,9,9,5,,,,,,space,1.25483795135,4,1,3.18933342642,2015_Jul_16_1335,360.287380426,KRITL,001,31025,
,,,,,,,,"('TIMES', 'INCREASE', 'HALF', 'TRIPLE', 'x', 'y')",increase,4,"(6, 3, 4, 8)",8,8,2,2,half,TIMES,triple,BUUUxy,,,,,0,10,10,11,,,,,,space,1.35174035531,6,0,14.2610651038,2015_Jul_16_1335,360.287380426,KRITL,001,31025,
,,,,,,,,"('DECREASE', 'TRIPLE', 'HALF', 'ADD', 'x', 'y')",triple,4,"(6, 3, 9, 8)",8,8,2,4,half,decrease,ADD,UUUBxy,,,,,0,11,11,16,,,,,,space,3.45931049634,5,0,10.2948100561,2015_Jul_16_1335,360.287380426,KRITL,001,31025,
,,,,,,,,"('DECREASE', 'TRIPLE', 'DIVIDE', 'x', 'y')",triple,3,"(2, 6, 5)",5,5,4,8,DIVIDE,decrease,0,UUBxy,,,,,0,12,12,8,,,,,,space,6.72776106185,5,1,2.69295053353,2015_Jul_16_1335,360.287380426,KRITL,001,31025,
,,,,,,,,"('THIRD', 'TIMES', 'HALF', 'INCREASE', 'x', 'y')",TIMES,4,"(8, 4, 12, 4)",4,4,3,7,half,third,increase,UBUUxy,,,,,0,13,13,13,,,,,,space,3.82900515781,4,1,3.84683764474,2015_Jul_16_1335,360.287380426,KRITL,001,31025,
,,,,,,,,"('INCREASE', 'SUBTRACT', 'THIRD', 'x', 'y')",SUBTRACT,3,"(3, 1, 2)",2,2,2,9,third,increase,0,UBUxy,,,,,0,14,14,7,,,,,,space,1.36519693138,1,0,3.54331374986,2015_Jul_16_1335,360.287380426,KRITL,001,31025,
,,,,,,,,"('ADD', 'THIRD', 'x', 'y')",third,2,"(1, 7)",7,7,6,3,0,ADD,0,BUxy,,,,,0,15,15,0,,,,,,space,0.835731905987,7,1,2.31033003086,2015_Jul_16_1335,360.287380426,KRITL,001,31025,
,,,,,,,,"('DIVIDE', 'TRIPLE', 'HALF', 'x', 'y')",triple,3,"(4, 12, 4)",4,4,3,8,half,DIVIDE,0,BUUxy,,,,,0,16,16,4,,,,,,space,0.870154392192,4,1,4.45410683067,2015_Jul_16_1335,360.287380426,KRITL,001,31025,
,,,,,,,,"('DIVIDE', 'DOUBLE', 'INCREASE', 'THIRD', 'x', 'y')",double,4,"(2, 3, 6, 2)",2,2,3,6,increase,DIVIDE,third,BUUUxy,,,,,0,17,17,10,,,,,,space,3.14071626283,2,1,4.08724515059,2015_Jul_16_1335,360.287380426,KRITL,001,31025,
,,,,,,,,"('THIRD', 'INCREASE', 'HALF', 'DIVIDE', 'x', 'y')",increase,4,"(4, 2, 3, 1)",1,1,2,8,half,third,DIVIDE,UUUBxy,,,,,0,0,0,16,,,,,,space,9.85479353524,1,1,3.03084558627,2015_Jul_16_1335,360.287380426,KRITL,001,31025,
,,,,,,,,"('THIRD', 'TIMES', 'DECREASE', 'x', 'y')",TIMES,3,"(3, 15, 5)",5,5,5,4,decrease,third,0,UBUxy,,,,,0,1,1,7,,,,,,space,5.12450369787,5,1,4.67750892001,2015_Jul_16_1335,360.287380426,KRITL,001,31025,
,,,,,,,,"('THIRD', 'DECREASE', 'TIMES', 'x', 'y')",decrease,3,"(25, 24, 8)",8,8,5,5,TIMES,third,0,UUBxy,,,,,0,2,2,8,,,,,,space,3.2692235701,8,1,5.2057448031,2015_Jul_16_1335,360.287380426,KRITL,001,31025,
,,,,,,,,"('SUBTRACT', 'HALF', 'INCREASE', 'TRIPLE', 'x', 'y')",half,4,"(15, 16, 8, 3)",3,3,5,5,increase,SUBTRACT,triple,BUUUxy,,,,,0,3,3,10,,,,,,space,6.22952692736,3,1,4.31069001353,2015_Jul_16_1335,360.287380426,KRITL,001,31025,
,,,,,,,,"('TIMES', 'DECREASE', 'HALF', 'x', 'y')",decrease,3,"(4, 3, 9)",9,9,3,8,half,TIMES,0,BUUxy,,,,,0,4,4,4,,,,,,space,0.901042752055,9,1,2.79072586122,2015_Jul_16_1335,360.287380426,KRITL,001,31025,
,,,,,,,,"('TIMES', 'THIRD', 'HALF', 'x', 'y')",third,3,"(3, 1, 5)",5,5,5,6,half,TIMES,0,BUUxy,,,,,0,5,5,5,,,,,,space,1.04521751747,5,1,3.07768028817,2015_Jul_16_1335,360.287380426,KRITL,001,31025,
,,,,,,,,"('THIRD', 'DOUBLE', 'ADD', 'INCREASE', 'x', 'y')",double,4,"(10, 12, 24, 8)",8,8,2,9,ADD,third,increase,UUBUxy,,,,,0,6,6,14,,,,,,space,1.25282793411,8,1,3.47804225552,2015_Jul_16_1335,360.287380426,KRITL,001,31025,
,,,,,,,,"('TRIPLE', 'HALF', 'DIVIDE', 'x', 'y')",half,3,"(2, 1, 3)",3,3,2,4,DIVIDE,triple,0,UUBxy,,,,,0,7,7,9,,,,,,space,0.931824006795,3,1,2.02270628254,2015_Jul_16_1335,360.287380426,KRITL,001,31025,
,,,,,,,,"('INCREASE', 'DIVIDE', 'TRIPLE', 'DOUBLE', 'x', 'y')",DIVIDE,4,"(6, 18, 3, 4)",4,4,6,3,triple,increase,double,UBUUxy,,,,,0,8,8,12,,,,,,space,1.95942393194,4,1,4.66330568789,2015_Jul_16_1335,360.287380426,KRITL,001,31025,
,,,,,,,,"('THIRD', 'ADD', 'INCREASE', 'x', 'y')",ADD,3,"(8, 15, 5)",5,5,7,7,increase,third,0,UBUxy,,,,,0,9,9,6,,,,,,space,0.740612305861,5,1,2.77499509815,2015_Jul_16_1335,360.287380426,KRITL,001,31025,
,,,,,,,,"('TIMES', 'INCREASE', 'x', 'y')",increase,2,"(3, 6)",6,6,2,2,0,TIMES,0,BUxy,,,,,0,10,10,1,,,,,,space,0.887744609412,6,1,1.31717688734,2015_Jul_16_1335,360.287380426,KRITL,001,31025,
,,,,,,,,"('TRIPLE', 'HALF', 'ADD', 'DECREASE', 'x', 'y')",half,4,"(1, 4, 2, 6)",6,6,3,2,ADD,triple,decrease,UUBUxy,,,,,0,11,11,15,,,,,,space,2.42401166454,6,1,7.71916151416,2015_Jul_16_1335,360.287380426,KRITL,001,31025,
,,,,,,,,"('TRIPLE', 'DECREASE', 'HALF', 'TIMES', 'x', 'y')",decrease,4,"(6, 3, 2, 6)",6,6,2,3,half,triple,TIMES,UUUBxy,,,,,0,12,12,17,,,,,,space,12.5799508822,6,1,5.23846421544,2015_Jul_16_1335,360.287380426,KRITL,001,31025,
,,,,,,,,"('TIMES', 'INCREASE', 'THIRD', 'DOUBLE', 'x', 'y')",increase,4,"(6, 2, 3, 9)",9,9,3,3,third,TIMES,double,BUUUxy,,,,,0,13,13,11,,,,,,space,4.4372475288,9,1,4.94964554369,2015_Jul_16_1335,360.287380426,KRITL,001,31025,
,,,,,,,,"('TIMES', 'DECREASE', 'x', 'y')",decrease,2,"(2, 4)",4,4,2,3,0,TIMES,0,BUxy,,,,,0,14,14,0,,,,,,space,0.788523533876,4,1,1.81602319767,2015_Jul_16_1335,360.287380426,KRITL,001,31025,
,,,,,,,,"('THIRD', 'ADD', 'x', 'y')",ADD,2,"(9, 3)",3,3,5,4,0,third,0,UBxy,,,,,0,15,15,2,,,,,,space,0.917601954308,3,1,1.46148579077,2015_Jul_16_1335,360.287380426,KRITL,001,31025,
,,,,,,,,"('TRIPLE', 'SUBTRACT', 'DOUBLE', 'DECREASE', 'x', 'y')",SUBTRACT,4,"(2, 4, 1, 3)",3,3,3,3,double,triple,decrease,UBUUxy,,,,,0,16,16,13,,,,,,space,5.60467881642,3,1,3.70319532516,2015_Jul_16_1335,360.287380426,KRITL,001,31025,
,,,,,,,,"('THIRD', 'SUBTRACT', 'x', 'y')",SUBTRACT,2,"(3, 1)",1,1,2,5,0,third,0,UBxy,,,,,0,17,17,3,,,,,,space,0.772168618336,1,1,1.67253965369,2015_Jul_16_1335,360.287380426,KRITL,001,31025,
