operationc	operationb	operationa	correctresponse	valuey	operationd	condition	valuex	Rule	Operatora	Length	Intermediate	CorrectResponse	Result	Y	X	Operatorc	Operatorb	Operatord	Structure	practice_trials.thisRepN	practice_trials.thisTrialN	practice_trials.thisN	practice_trials.thisIndex	block.thisRepN	block.thisTrialN	block.thisN	block.thisIndex	practice_encoding.keys	practice_encoding.rt	practice_execution.keys	practice_execution.corr	practice_execution.rt	encoding.keys	encoding.rt	execution.keys	execution.corr	execution.rt	date	frameRate	expName	session	participant	X.1	LogEncoding	EncodingSpeed	LogExecution	ExecutionSpeed	Chunks	Offset
1				NA	NA		NA	NA	('ADD', 'DECREASE', 'HALF', 'x', 'y')	decrease	Length = 3	(3, 2, 6)	6	6	4	6	half	ADD	0	BUUxy	NA	NA	NA	NA	0	0	0	4			NA	NA	NA	space	2.4305004871	6	1	4.40728784449	2015_Jul_08_1336	357.524927026	KRITL	1	31010	NA	0.888097197914791	0.4114378932683	1.48325949901848	0.226896911498577	Chunks = 2	3rd
2				NA	NA		NA	NA	('ADD', 'DECREASE', 'HALF', 'x', 'y')	decrease	Length = 3	(3, 2, 6)	6	6	4	6	half	ADD	0	BUUxy	NA	NA	NA	NA	0	0	0	4			NA	NA	NA	space	2.61655043042	6	1	5.01636523718	2015_Jul_08_1336	60.0051538288	KRITL	1	31008	NA	0.961856820644002	0.382182582217413	1.6127056151096	0.199347526090855	Chunks = 2	3rd
3				NA	NA		NA	NA	('ADD', 'DECREASE', 'HALF', 'x', 'y')	decrease	Length = 3	(3, 2, 6)	6	6	4	6	half	ADD	0	BUUxy	NA	NA	NA	NA	0	0	0	4			NA	NA	NA	space	5.27302366	6	1	2.70150494797	2015_Jul_17_1555	None	KRITL	1	31020	NA	1.66260394754756	0.189644512234182	0.993809005864252	0.37016404532275	Chunks = 2	3rd
5				NA	NA		NA	NA	('ADD', 'DECREASE', 'HALF', 'x', 'y')	decrease	Length = 3	(3, 2, 6)	6	6	4	6	half	ADD	0	BUUxy	NA	NA	NA	NA	0	3	3	4				NA	NA	space	3.29777692698	6	1	5.82329468921	2015_Jul_09_1334	None	KRITL	1	31014	NA	1.19324858297169	0.303234579579574	1.76186619937284	0.171724093210138	Chunks = 2	3rd
6				NA	NA		NA	NA	('ADD', 'DECREASE', 'HALF', 'x', 'y')	decrease	Length = 3	(3, 2, 6)	6	6	4	6	half	ADD	0	BUUxy	NA	NA	NA	NA	0	3	3	4			NA	NA	NA	space	1.20367978314	6	1	2.51910531449	2015_Jul_07_1404	None	KRITL	1	31003	NA	0.185383350665595	0.83078574053253	0.923903804551324	0.39696633334381	Chunks = 2	3rd
8				NA	NA		NA	NA	('ADD', 'DECREASE', 'HALF', 'x', 'y')	decrease	Length = 3	(3, 2, 6)	6	6	4	6	half	ADD	0	BUUxy	NA	NA	NA	NA	0	4	4	4				NA	NA	space	3.36578649993	6	1	3.47578243687	2015_Jul_09_1534	None	KRITL	1	31015	NA	1.21366166533449	0.297107377434902	1.24581961536088	0.287705004027961	Chunks = 2	3rd
9				NA	NA		NA	NA	('ADD', 'DECREASE', 'HALF', 'x', 'y')	decrease	Length = 3	(3, 2, 6)	6	6	4	6	half	ADD	0	BUUxy	NA	NA	NA	NA	0	4	4	4			NA	NA	NA	space	2.09463047533	6	1	2.88546150213	2015_Jul_14_1533	283.057880698	KRITL	1	31021	NA	0.739377153725906	0.477411176710037	1.05968485324311	0.346565011961455	Chunks = 2	3rd
10				NA	NA		NA	NA	('ADD', 'DECREASE', 'HALF', 'x', 'y')	decrease	Length = 3	(3, 2, 6)	6	6	4	6	half	ADD	0	BUUxy	NA	NA	NA	NA	0	5	5	4			NA	NA	NA	space	5.56967755413	6	1	6.44905039159	2015_Jul_09_1535	None	KRITL	1	31016	NA	1.71733716252025	0.179543607377861	1.86393289385878	0.155061588804465	Chunks = 2	3rd
12				NA	NA		NA	NA	('ADD', 'DECREASE', 'HALF', 'x', 'y')	decrease	Length = 3	(3, 2, 6)	6	6	4	6	half	ADD	0	BUUxy	NA	NA	NA	NA	0	7	7	4				NA	NA	space	1.14091082825	6	1	4.88591326296	2015_Jul_09_1535	360.822427182	KRITL	1	31017	NA	0.131826915547187	0.876492689208553	1.58635622052079	0.204670027112634	Chunks = 2	3rd
13				NA	NA		NA	NA	('ADD', 'DECREASE', 'HALF', 'x', 'y')	decrease	Length = 3	(3, 2, 6)	6	6	4	6	half	ADD	0	BUUxy	NA	NA	NA	NA	0	7	7	4			NA	NA	NA	space	2.01360902991	6	1	5.85353853327	2015_Jul_08_1558	None	KRITL	1	31013	NA	0.699928649289581	0.496620736769688	1.76704635586117	0.170836835585221	Chunks = 2	3rd
14				NA	NA		NA	NA	('ADD', 'DECREASE', 'HALF', 'x', 'y')	decrease	Length = 3	(3, 2, 6)	6	6	4	6	half	ADD	0	BUUxy	NA	NA	NA	NA	0	8	8	4			NA	NA	NA	space	1.15000891406	6	1	2.76657097893	2015_Jul_07_1404	60.0082342211	KRITL	1	31004	NA	0.139769693701639	0.869558477133532	1.01760863960742	0.361458284503064	Chunks = 2	3rd
15				NA	NA		NA	NA	('ADD', 'DECREASE', 'HALF', 'x', 'y')	decrease	Length = 3	(3, 2, 6)	6	6	4	6	half	ADD	0	BUUxy	NA	NA	NA	NA	0	9	9	4				NA	NA	space	4.00976919639	6	1	3.60411394631	2015_Jul_07_1543	None	KRITL	1	31007	NA	1.38873368265203	0.249390912798747	1.28207595586949	0.277460705986788	Chunks = 2	3rd
16				NA	NA		NA	NA	('ADD', 'DECREASE', 'HALF', 'x', 'y')	decrease	Length = 3	(3, 2, 6)	6	6	4	6	half	ADD	0	BUUxy	NA	NA	NA	NA	0	10	10	4				NA	NA	space	2.61197051838	6	1	3.19193919441	2015_Jul_16_1335	360.287380426	KRITL	1	31025	NA	0.960104924359675	0.382852713291811	1.16062863003582	0.313289175981575	Chunks = 2	3rd
17				NA	NA		NA	NA	('ADD', 'DECREASE', 'HALF', 'x', 'y')	decrease	Length = 3	(3, 2, 6)	6	6	4	6	half	ADD	0	BUUxy	NA	NA	NA	NA	0	10	10	4			NA	NA	NA	space	1.97120395489	6	1	3.57388131547	2015_Jul_13_1550	287.784491609	KRITL	1	31019	NA	0.678644500691293	0.507304176982439	1.27365220842703	0.279807836838726	Chunks = 2	3rd
19				NA	NA		NA	NA	('ADD', 'DECREASE', 'HALF', 'x', 'y')	decrease	Length = 3	(3, 2, 6)	6	6	4	6	half	ADD	0	BUUxy	NA	NA	NA	NA	0	11	11	4				NA	NA	space	2.2829535238	6	1	3.07683938183	2015_Jul_16_1551	None	KRITL	1	31026	NA	0.825470009828396	0.43802906610884	1.1239028953772	0.325008840534677	Chunks = 2	3rd
21				NA	NA		NA	NA	('ADD', 'DECREASE', 'HALF', 'x', 'y')	decrease	Length = 3	(3, 2, 6)	6	6	4	6	half	ADD	0	BUUxy	NA	NA	NA	NA	0	12	12	4				NA	NA	space	1.62491360307	6	1	4.09730350581	2015_Jul_08_1553	None	KRITL	1	31011	NA	0.485454647026729	0.61541733548828	1.41032907583315	0.244062954716924	Chunks = 2	3rd
22				NA	NA		NA	NA	('ADD', 'DECREASE', 'HALF', 'x', 'y')	decrease	Length = 3	(3, 2, 6)	6	6	4	6	half	ADD	0	BUUxy	NA	NA	NA	NA	0	12	12	4			NA	NA	NA	space	1.01167793141	6	1	4.58698989761	2015_Jul_22_1134	281.773905697	KRITL	1	31028	NA	0.0116102706182628	0.988456868488053	1.52322401321671	0.218007892391705	Chunks = 2	3rd
23				NA	NA		NA	NA	('ADD', 'DECREASE', 'HALF', 'x', 'y')	decrease	Length = 3	(3, 2, 6)	6	6	4	6	half	ADD	0	BUUxy	NA	NA	NA	NA	0	12	12	4			NA	NA	NA	space	2.93243880915	6	1	9.31850041046	2015_Jul_07_1404	360.230878236	KRITL	1	31002	NA	1.07583443488277	0.341013083335185	2.23200171558644	0.107313404083505	Chunks = 2	3rd
24				NA	NA		NA	NA	('ADD', 'DECREASE', 'HALF', 'x', 'y')	decrease	Length = 3	(3, 2, 6)	6	6	4	6	half	ADD	0	BUUxy	NA	NA	NA	NA	0	12	12	4			NA	NA	NA	space	7.30325731862	6	1	5.14361171555	2015_Jul_14_1534	340.004537469	KRITL	1	31022	NA	1.98832045666328	0.136925204244201	1.63775550110616	0.194415919260941	Chunks = 2	3rd
25				NA	NA		NA	NA	('ADD', 'DECREASE', 'HALF', 'x', 'y')	decrease	Length = 3	(3, 2, 6)	6	6	4	6	half	ADD	0	BUUxy	NA	NA	NA	NA	0	13	13	4			NA	NA	NA	space	1.26089532557	6	1	2.54832033277	2015_Jul_10_1353	None	KRITL	1	31018	NA	0.231822044473105	0.793087245008177	0.935434449105397	0.392415343997593	Chunks = 2	3rd
26				NA	NA		NA	NA	('ADD', 'DECREASE', 'HALF', 'x', 'y')	decrease	Length = 3	(3, 2, 6)	6	6	4	6	half	ADD	0	BUUxy	NA	NA	NA	NA	0	13	13	4			NA	NA	NA	space	1.81682211461	6	1	4.31526075254	2015_Jul_21_1534	None	KRITL	1	31027	NA	0.597088884021568	0.550411618153746	1.46215775203522	0.231735706680388	Chunks = 2	3rd
27				NA	NA		NA	NA	('ADD', 'DECREASE', 'HALF', 'x', 'y')	decrease	Length = 3	(3, 2, 6)	6	6	4	6	half	ADD	0	BUUxy	NA	NA	NA	NA	0	14	14	4			NA	NA	NA	space	2.15578519383	6	1	3.34644109887	2015_Jul_08_1337	None	KRITL	1	31009	NA	0.768155016278906	0.463868108409904	1.20789742258789	0.298824921896182	Chunks = 2	3rd
29				NA	NA		NA	NA	('ADD', 'DECREASE', 'THIRD', 'DOUBLE', 'x', 'y')	decrease	Length = 4	(18, 6, 5, 9)	9	9	4	9	third	ADD	double	BUUUxy	NA	NA	NA	NA	0	0	0	10				NA	NA	space	6.96894841606	9	1	9.3015638372	2015_Jul_16_1335	360.287380426	KRITL	1	31025	NA	1.9414643405148	0.143493672258427	2.23018254056046	0.107508803627265	Chunks = 2	4th
31				NA	NA		NA	NA	('ADD', 'DECREASE', 'THIRD', 'DOUBLE', 'x', 'y')	decrease	Length = 4	(18, 6, 5, 9)	9	9	4	9	third	ADD	double	BUUUxy	NA	NA	NA	NA	0	1	1	10			NA	NA	NA	space	2.61655453671	9	1	3.34986362017	2015_Jul_07_1404	60.0082342211	KRITL	1	31004	NA	0.961858389995286	0.382181982439158	1.20891963461127	0.298519615538632	Chunks = 2	4th
32				NA	NA		NA	NA	('ADD', 'DECREASE', 'THIRD', 'DOUBLE', 'x', 'y')	decrease	Length = 4	(18, 6, 5, 9)	9	9	4	9	third	ADD	double	BUUUxy	NA	NA	NA	NA	0	2	2	10			NA	NA	NA	space	2.29329004517	9	1	3.78287215729	2015_Jul_14_1533	283.057880698	KRITL	1	31021	NA	0.829987487446379	0.436054742445747	1.33048355107775	0.264349403950354	Chunks = 2	4th
34				NA	NA		NA	NA	('ADD', 'DECREASE', 'THIRD', 'DOUBLE', 'x', 'y')	decrease	Length = 4	(18, 6, 5, 9)	9	9	4	9	third	ADD	double	BUUUxy	NA	NA	NA	NA	0	3	3	10			NA	NA	NA	space	5.73625619477	9	1	6.59517206069	2015_Jul_07_1404	None	KRITL	1	31003	NA	1.74680676666008	0.174329731107851	1.88633787539529	0.151626066886173	Chunks = 2	4th
35				NA	NA		NA	NA	('ADD', 'DECREASE', 'THIRD', 'DOUBLE', 'x', 'y')	decrease	Length = 4	(18, 6, 5, 9)	9	9	4	9	third	ADD	double	BUUUxy	NA	NA	NA	NA	0	4	4	10			NA	NA	NA	space	4.91342918366	9	1	4.91696031519	2015_Jul_10_1353	None	KRITL	1	31018	NA	1.5919721061104	0.203523845082693	1.59269051745763	0.203377683751218	Chunks = 2	4th
38				NA	NA		NA	NA	('ADD', 'DECREASE', 'THIRD', 'DOUBLE', 'x', 'y')	decrease	Length = 4	(18, 6, 5, 9)	9	9	4	9	third	ADD	double	BUUUxy	NA	NA	NA	NA	0	5	5	10			NA	NA	NA	space	3.13317521874	9	1	8.9493500614	2015_Jul_07_1543	60.0017041557	KRITL	1	31006	NA	1.14204693723034	0.319165041909832	2.1915809108119	0.111739958001326	Chunks = 2	4th
39				NA	NA		NA	NA	('ADD', 'DECREASE', 'THIRD', 'DOUBLE', 'x', 'y')	decrease	Length = 4	(18, 6, 5, 9)	9	9	4	9	third	ADD	double	BUUUxy	NA	NA	NA	NA	0	7	7	10			NA	NA	NA	space	3.40022558646	9	1	7.07683413236	2015_Jul_21_1534	None	KRITL	1	31027	NA	1.22384177837994	0.294098133953844	1.95682665125504	0.141306123797269	Chunks = 2	4th
41				NA	NA		NA	NA	('ADD', 'DECREASE', 'THIRD', 'DOUBLE', 'x', 'y')	decrease	Length = 4	(18, 6, 5, 9)	9	9	4	9	third	ADD	double	BUUUxy	NA	NA	NA	NA	0	11	11	10				NA	NA	space	3.09383328009	9	1	9.30458335069	2015_Jul_09_1534	None	KRITL	1	31015	NA	1.12941086578953	0.323223622434791	2.23050711216424	0.107473914984688	Chunks = 2	4th
42				NA	NA		NA	NA	('ADD', 'DECREASE', 'THIRD', 'DOUBLE', 'x', 'y')	decrease	Length = 4	(18, 6, 5, 9)	9	9	4	9	third	ADD	double	BUUUxy	NA	NA	NA	NA	0	12	12	10				NA	NA	space	3.52410076009	9	1	6.4146535309	2015_Jul_16_1335	None	KRITL	1	31024	NA	1.25962530019923	0.28376033152198	1.85858498739627	0.155893065024152	Chunks = 2	4th
43				NA	NA		NA	NA	('ADD', 'DECREASE', 'THIRD', 'DOUBLE', 'x', 'y')	decrease	Length = 4	(18, 6, 5, 9)	9	9	4	9	third	ADD	double	BUUUxy	NA	NA	NA	NA	0	12	12	10				NA	NA	space	5.91703205771	9	1	5.12725652079	2015_Jul_09_1334	None	KRITL	1	31014	NA	1.77783498157915	0.169003647478465	1.63457072486182	0.195036077470515	Chunks = 2	4th
44				NA	NA		NA	NA	('ADD', 'DECREASE', 'THIRD', 'DOUBLE', 'x', 'y')	decrease	Length = 4	(18, 6, 5, 9)	9	9	4	9	third	ADD	double	BUUUxy	NA	NA	NA	NA	0	13	13	10			NA	NA	NA	space	3.26842432501	9	1	3.01619950638	2015_Jul_08_1336	357.524927026	KRITL	1	31010	NA	1.18430801098328	0.305957825716812	1.10399759728818	0.331543055386341	Chunks = 2	4th
47				NA	NA		NA	NA	('ADD', 'DECREASE', 'THIRD', 'DOUBLE', 'x', 'y')	decrease	Length = 4	(18, 6, 5, 9)	9	9	4	9	third	ADD	double	BUUUxy	NA	NA	NA	NA	0	14	14	10			NA	NA	NA	space	2.14992849939	9	1	4.6663928006	2015_Jul_08_1336	60.0051538288	KRITL	1	31008	NA	0.765434585488901	0.465131747536595	1.54038635363937	0.21429829050641	Chunks = 2	4th
48				NA	NA		NA	NA	('ADD', 'DECREASE', 'THIRD', 'DOUBLE', 'x', 'y')	decrease	Length = 4	(18, 6, 5, 9)	9	9	4	9	third	ADD	double	BUUUxy	NA	NA	NA	NA	0	14	14	10			NA	NA	NA	space	2.30777145833	9	1	6.51874178964	2015_Jul_07_1404	360.230878236	KRITL	1	31002	NA	0.836282322222101	0.433318471112231	1.87468138026702	0.153403836548529	Chunks = 2	4th
49				NA	NA		NA	NA	('ADD', 'DECREASE', 'THIRD', 'DOUBLE', 'x', 'y')	decrease	Length = 4	(18, 6, 5, 9)	9	9	4	9	third	ADD	double	BUUUxy	NA	NA	NA	NA	0	14	14	10			NA	NA	NA	space	2.89142557974	9	1	6.19166589966	2015_Jul_22_1134	281.773905697	KRITL	1	31028	NA	1.06174966068852	0.345850160214022	1.82320417805845	0.161507422429707	Chunks = 2	4th
50				NA	NA		NA	NA	('ADD', 'DECREASE', 'THIRD', 'DOUBLE', 'x', 'y')	decrease	Length = 4	(18, 6, 5, 9)	9	9	4	9	third	ADD	double	BUUUxy	NA	NA	NA	NA	0	14	14	10			NA	NA	NA	space	3.50299061293	9	1	5.45189839439	2015_Jul_13_1550	287.784491609	KRITL	1	31019	NA	1.25361706448866	0.285470362469391	1.69596387726848	0.183422347164246	Chunks = 2	4th
51				NA	NA		NA	NA	('ADD', 'DECREASE', 'THIRD', 'DOUBLE', 'x', 'y')	decrease	Length = 4	(18, 6, 5, 9)	9	9	4	9	third	ADD	double	BUUUxy	NA	NA	NA	NA	0	15	15	10				NA	NA	space	4.62612386397	9	1	4.62110153804	2015_Jul_16_1551	None	KRITL	1	31026	NA	1.53171933906039	0.216163688955321	1.53063310482136	0.216398620927975	Chunks = 2	4th
52				NA	NA		NA	NA	('ADD', 'DECREASE', 'THIRD', 'DOUBLE', 'x', 'y')	decrease	Length = 4	(18, 6, 5, 9)	9	9	4	9	third	ADD	double	BUUUxy	NA	NA	NA	NA	0	15	15	10			NA	NA	NA	space	1.35360835097	9	1	6.53641632495	2015_Jul_08_1337	None	KRITL	1	31009	NA	0.302773879302623	0.738766127797155	1.87738905273689	0.152989031035695	Chunks = 2	4th
54				NA	NA		NA	NA	('ADD', 'DECREASE', 'THIRD', 'DOUBLE', 'x', 'y')	decrease	Length = 4	(18, 6, 5, 9)	9	9	4	9	third	ADD	double	BUUUxy	NA	NA	NA	NA	0	16	16	10			NA	NA	NA	space	3.14269166013	9	1	8.91552791467	2015_Jul_08_1558	None	KRITL	1	31013	NA	1.14507964932175	0.318198572480583	2.18779446601393	0.112163857213049	Chunks = 2	4th
55				NA	NA		NA	NA	('ADD', 'DECREASE', 'THIRD', 'DOUBLE', 'x', 'y')	decrease	Length = 4	(18, 6, 5, 9)	9	9	4	9	third	ADD	double	BUUUxy	NA	NA	NA	NA	0	16	16	10			NA	NA	NA	space	10.4390982944	9	1	7.52356424043	2015_Jul_14_1534	340.004537469	KRITL	1	31022	NA	2.34555820845617	0.0957937143418263	2.01803999381661	0.132915725584719	Chunks = 2	4th
56				NA	NA		NA	NA	('ADD', 'DECREASE', 'THIRD', 'DOUBLE', 'x', 'y')	decrease	Length = 4	(18, 6, 5, 9)	9	9	4	9	third	ADD	double	BUUUxy	NA	NA	NA	NA	0	17	17	10				NA	NA	space	6.48380252189	9	1	6.98091900788	2015_Jul_08_1553	None	KRITL	1	31011	NA	1.86930714719279	0.15423048382857	1.94318057112752	0.143247615231062	Chunks = 2	4th
58				NA	NA		NA	NA	('ADD', 'DECREASE', 'x', 'y')	decrease	Length = 2	(2, 7)	7	7	5	3	0	ADD	0	BUxy	NA	NA	NA	NA	0	1	1	0				NA	NA	space	3.71639729394	7	1	2.34263384616	2015_Jul_07_1549	287.31282802	KRITL	1	31005	NA	1.31275472964462	0.269077797906755	0.85127587166674	0.426869953082587	Chunks = 2	2nd
59				NA	NA		NA	NA	('ADD', 'DECREASE', 'x', 'y')	decrease	Length = 2	(2, 7)	7	7	5	3	0	ADD	0	BUxy	NA	NA	NA	NA	0	2	2	0				NA	NA	space	1.06267964	7	1	1.73904049448	2015_Jul_07_1543	None	KRITL	1	31007	NA	0.0607936804663924	0.941017370013789	0.553333521173485	0.575029738050473	Chunks = 2	2nd
60				NA	NA		NA	NA	('ADD', 'DECREASE', 'x', 'y')	decrease	Length = 2	(2, 7)	7	7	5	3	0	ADD	0	BUxy	NA	NA	NA	NA	0	2	2	0			NA	NA	NA	space	1.46139080387	7	1	2.52867163311	2015_Jul_21_1534	None	KRITL	1	31027	NA	0.379388587670085	0.684279658358214	0.927694118652825	0.395464554158068	Chunks = 2	2nd
61				NA	NA		NA	NA	('ADD', 'DECREASE', 'x', 'y')	decrease	Length = 2	(2, 7)	7	7	5	3	0	ADD	0	BUxy	NA	NA	NA	NA	0	2	2	0			NA	NA	NA	space	1.71778594904	7	1	2.76684767944	2015_Jul_10_1353	None	KRITL	1	31018	NA	0.541036222691432	0.582144708168593	1.01770865029785	0.361422136618087	Chunks = 2	2nd
62				NA	NA		NA	NA	('ADD', 'DECREASE', 'x', 'y')	decrease	Length = 2	(2, 7)	7	7	5	3	0	ADD	0	BUxy	NA	NA	NA	NA	0	2	2	0			NA	NA	NA	space	1.89075259997	7	1	3.28527273179	2015_Jul_15_1558	None	KRITL	1	31023	NA	0.636974950852884	0.528889924581284	1.18944967186628	0.304388731664036	Chunks = 2	2nd
63				NA	NA		NA	NA	('ADD', 'DECREASE', 'x', 'y')	decrease	Length = 2	(2, 7)	7	7	5	3	0	ADD	0	BUxy	NA	NA	NA	NA	0	3	3	0			NA	NA	NA	space	0.916706161093	7	1	3.41652873559	2015_Jul_07_1543	60.0017041557	KRITL	1	31006	NA	-0.0869682930890271	1.09086209130272	1.22862504603019	0.292694742936886	Chunks = 2	2nd
64				NA	NA		NA	NA	('ADD', 'DECREASE', 'x', 'y')	decrease	Length = 2	(2, 7)	7	7	5	3	0	ADD	0	BUxy	NA	NA	NA	NA	0	3	3	0			NA	NA	NA	space	2.33325303276	7	1	1.88331902408	2015_Jul_08_1336	60.0051538288	KRITL	1	31008	NA	0.847263445263582	0.428586178163927	0.633035658627748	0.53097748560603	Chunks = 2	2nd
65				NA	NA		NA	NA	('ADD', 'DECREASE', 'x', 'y')	decrease	Length = 2	(2, 7)	7	7	5	3	0	ADD	0	BUxy	NA	NA	NA	NA	0	4	4	0				NA	NA	space	1.4447148875	7	1	1.58520548558	2015_Jul_09_1534	None	KRITL	1	31015	NA	0.367911992407697	0.692178095935901	0.460714042825254	0.630833042843097	Chunks = 2	2nd
66				NA	NA		NA	NA	('ADD', 'DECREASE', 'x', 'y')	decrease	Length = 2	(2, 7)	7	7	5	3	0	ADD	0	BUxy	NA	NA	NA	NA	0	5	5	0				NA	NA	space	1.00053719393	7	1	1.98804384761	2015_Jul_16_1551	None	KRITL	1	31026	NA	0.000537049692994038	0.99946309449238	0.687151164133	0.503007014257853	Chunks = 2	2nd
67				NA	NA		NA	NA	('ADD', 'DECREASE', 'x', 'y')	decrease	Length = 2	(2, 7)	7	7	5	3	0	ADD	0	BUxy	NA	NA	NA	NA	0	7	7	0			NA	NA	NA	space	0.65150846506	7	1	1.47440384596	2015_Jul_13_1550	287.784491609	KRITL	1	31019	NA	-0.42846488931669	1.53489947349787	0.388253735861664	0.678240227560509	Chunks = 2	2nd
68				NA	NA		NA	NA	('ADD', 'DECREASE', 'x', 'y')	decrease	Length = 2	(2, 7)	7	7	5	3	0	ADD	0	BUxy	NA	NA	NA	NA	0	7	7	0			NA	NA	NA	space	1.15446688137	7	1	3.22680118329	2015_Jul_08_1337	None	KRITL	1	31009	NA	0.143638662843995	0.866200682009435	1.17149130078757	0.309904435754673	Chunks = 2	2nd
69				NA	NA		NA	NA	('ADD', 'DECREASE', 'x', 'y')	decrease	Length = 2	(2, 7)	7	7	5	3	0	ADD	0	BUxy	NA	NA	NA	NA	0	9	9	0			NA	NA	NA	space	0.580758515194	7	1	1.89412731837	2015_Jul_07_1404	None	KRITL	1	31003	NA	-0.543420245030157	1.72188607456914	0.63875821445285	0.527947614873405	Chunks = 2	2nd
70				NA	NA		NA	NA	('ADD', 'DECREASE', 'x', 'y')	decrease	Length = 2	(2, 7)	7	7	5	3	0	ADD	0	BUxy	NA	NA	NA	NA	0	10	10	0				NA	NA	space	1.19014923833	7	1	2.56505962793	2015_Jul_09_1535	360.822427182	KRITL	1	31017	NA	0.174078709621561	0.840230760810455	0.941981725108867	0.389854484906068	Chunks = 2	2nd
71				NA	NA		NA	NA	('ADD', 'DECREASE', 'x', 'y')	decrease	Length = 2	(2, 7)	7	7	5	3	0	ADD	0	BUxy	NA	NA	NA	NA	0	10	10	0				NA	NA	space	1.46132374623	7	1	1.55729039622	2015_Jul_08_1553	None	KRITL	1	31011	NA	0.379342700438292	0.684311058777942	0.442947385557355	0.642140992089396	Chunks = 2	2nd
72				NA	NA		NA	NA	('ADD', 'DECREASE', 'x', 'y')	decrease	Length = 2	(2, 7)	7	7	5	3	0	ADD	0	BUxy	NA	NA	NA	NA	0	11	11	0				NA	NA	space	1.7320662089	7	1	1.63931748722	2015_Jul_09_1334	None	KRITL	1	31014	NA	0.549315036257191	0.577345135458234	0.494279988885599	0.610009963168164	Chunks = 2	2nd
73				NA	NA		NA	NA	('ADD', 'DECREASE', 'x', 'y')	decrease	Length = 2	(2, 7)	7	7	5	3	0	ADD	0	BUxy	NA	NA	NA	NA	0	11	11	0			NA	NA	NA	space	2.38971650778	7	1	2.0529401962	2015_Jul_14_1534	340.004537469	KRITL	1	31022	NA	0.871174742916355	0.41845967785065	0.719273007656349	0.487106249783118	Chunks = 2	2nd
75				NA	NA		NA	NA	('ADD', 'DECREASE', 'x', 'y')	decrease	Length = 2	(2, 7)	7	7	5	3	0	ADD	0	BUxy	NA	NA	NA	NA	0	12	12	0			NA	NA	NA	space	1.14823998115	7	1	1.50848748937	2015_Jul_14_1533	283.057880698	KRITL	1	31021	NA	0.138230318864559	0.870898084386913	0.411107486158657	0.662915673511907	Chunks = 2	2nd
76				NA	NA		NA	NA	('ADD', 'DECREASE', 'x', 'y')	decrease	Length = 2	(2, 7)	7	7	5	3	0	ADD	0	BUxy	NA	NA	NA	NA	0	12	12	0			NA	NA	NA	space	1.46268871221	7	1	3.46068520343	2015_Jul_07_1404	360.230878236	KRITL	1	31002	NA	0.380276325789449	0.683672466774618	1.24146660513657	0.288960116629177	Chunks = 2	2nd
77				NA	NA		NA	NA	('ADD', 'DECREASE', 'x', 'y')	decrease	Length = 2	(2, 7)	7	7	5	3	0	ADD	0	BUxy	NA	NA	NA	NA	0	14	14	0				NA	NA	space	0.917397667567	7	1	1.35007389568	2015_Jul_16_1335	360.287380426	KRITL	1	31025	NA	-0.0862142392607103	1.09003983261922	0.300159328493034	0.740700196633551	Chunks = 2	2nd
79				NA	NA		NA	NA	('ADD', 'DECREASE', 'x', 'y')	decrease	Length = 2	(2, 7)	7	7	5	3	0	ADD	0	BUxy	NA	NA	NA	NA	0	14	14	0			NA	NA	NA	space	0.900041165456	7	1	1.45002297807	2015_Jul_07_1404	60.0082342211	KRITL	1	31004	NA	-0.105314777308285	1.11106029188493	0.371579403251749	0.689644243659513	Chunks = 2	2nd
80				NA	NA		NA	NA	('ADD', 'DECREASE', 'x', 'y')	decrease	Length = 2	(2, 7)	7	7	5	3	0	ADD	0	BUxy	NA	NA	NA	NA	0	15	15	0			NA	NA	NA	space	0.788224843331	7	1	2.08519241042	2015_Jul_08_1336	357.524927026	KRITL	1	31010	NA	-0.237971895647916	1.26867353707611	0.734861134167994	0.479572050522944	Chunks = 2	2nd
81				NA	NA		NA	NA	('ADD', 'DECREASE', 'x', 'y')	decrease	Length = 2	(2, 7)	7	7	5	3	0	ADD	0	BUxy	NA	NA	NA	NA	0	15	15	0			NA	NA	NA	space	0.965448455448	7	1	3.88124794178	2015_Jul_08_1558	None	KRITL	1	31013	NA	-0.035162564920857	1.03578807792071	1.35615673640128	0.257649089931983	Chunks = 2	2nd
82				NA	NA		NA	NA	('ADD', 'DECREASE', 'x', 'y')	decrease	Length = 2	(2, 7)	7	7	5	3	0	ADD	0	BUxy	NA	NA	NA	NA	0	16	16	0			NA	NA	NA	space	0.761345203631	7	1	2.02276442453	2015_Jul_22_1134	281.773905697	KRITL	1	31028	NA	-0.272668405536609	1.313464635005	0.704465102828575	0.494372942233427	Chunks = 2	2nd
83				NA	NA		NA	NA	('ADD', 'DECREASE', 'x', 'y')	decrease	Length = 2	(2, 7)	7	7	5	3	0	ADD	0	BUxy	NA	NA	NA	NA	0	16	16	0			NA	NA	NA	space	0.987412513525	7	1	3.63912325748	2015_Jul_09_1535	None	KRITL	1	31016	NA	-0.0126673800302655	1.01274795113753	1.29174278930675	0.274791461911756	Chunks = 2	2nd
84				NA	NA		NA	NA	('ADD', 'DECREASE', 'x', 'y')	decrease	Length = 2	(2, 7)	7	7	5	3	0	ADD	0	BUxy	NA	NA	NA	NA	0	17	17	0			NA	NA	NA	space	2.48783054488	7	1	1.89272079457	2015_Jul_17_1555	None	KRITL	1	31020	NA	0.911411063586351	0.401956637303139	0.638015367725054	0.528339944733997	Chunks = 2	2nd
86				NA	NA		NA	NA	('ADD', 'DOUBLE', 'DECREASE', 'THIRD', 'x', 'y')	double	Length = 4	(2, 1, 2, 8)	8	8	6	6	decrease	ADD	third	BUUUxy	NA	NA	NA	NA	0	2	2	10				NA	NA	space	5.57042622953	8	1	3.57265793884	2015_Jul_07_1543	None	KRITL	1	31007	NA	1.71747157336878	0.179519476391015	1.27330983945699	0.279903650760556	Chunks = 2	4th
87				NA	NA		NA	NA	('ADD', 'DOUBLE', 'DECREASE', 'THIRD', 'x', 'y')	double	Length = 4	(2, 1, 2, 8)	8	8	6	6	decrease	ADD	third	BUUUxy	NA	NA	NA	NA	0	2	2	10			NA	NA	NA	space	8.35755634206	8	1	8.6820224523	2015_Jul_07_1404	360.230878236	KRITL	1	31002	NA	2.12316608078625	0.119652199646855	2.1612545029487	0.115180536043775	Chunks = 2	4th
90				NA	NA		NA	NA	('ADD', 'DOUBLE', 'DECREASE', 'THIRD', 'x', 'y')	double	Length = 4	(2, 1, 2, 8)	8	8	6	6	decrease	ADD	third	BUUUxy	NA	NA	NA	NA	0	4	4	10				NA	NA	space	4.67642589234	8	1	5.47945481105	2015_Jul_16_1335	360.287380426	KRITL	1	31025	NA	1.54253411994557	0.213838521773221	1.70100560897609	0.182499908199512	Chunks = 2	4th
91				NA	NA		NA	NA	('ADD', 'DOUBLE', 'DECREASE', 'THIRD', 'x', 'y')	double	Length = 4	(2, 1, 2, 8)	8	8	6	6	decrease	ADD	third	BUUUxy	NA	NA	NA	NA	0	4	4	10			NA	NA	NA	space	4.67736796665	8	1	5.1488797144	2015_Jul_10_1353	None	KRITL	1	31018	NA	1.54273555143473	0.213795452299259	1.63877915982784	0.194217005536811	Chunks = 2	4th
92				NA	NA		NA	NA	('ADD', 'DOUBLE', 'DECREASE', 'THIRD', 'x', 'y')	double	Length = 4	(2, 1, 2, 8)	8	8	6	6	decrease	ADD	third	BUUUxy	NA	NA	NA	NA	0	5	5	10				NA	NA	space	3.00971425232	8	1	4.62664871596	2015_Jul_09_1534	None	KRITL	1	31015	NA	1.10184514147033	0.332257455746559	1.53183278656729	0.216139167114724	Chunks = 2	4th
93				NA	NA		NA	NA	('ADD', 'DOUBLE', 'DECREASE', 'THIRD', 'x', 'y')	double	Length = 4	(2, 1, 2, 8)	8	8	6	6	decrease	ADD	third	BUUUxy	NA	NA	NA	NA	0	5	5	10			NA	NA	NA	space	6.56557530473	8	1	5.57439416528	2015_Jul_08_1336	357.524927026	KRITL	1	31010	NA	1.8818401360143	0.152309577392186	1.71818364153625	0.179391691787509	Chunks = 2	4th
95				NA	NA		NA	NA	('ADD', 'DOUBLE', 'DECREASE', 'THIRD', 'x', 'y')	double	Length = 4	(2, 1, 2, 8)	8	8	6	6	decrease	ADD	third	BUUUxy	NA	NA	NA	NA	0	6	6	10			NA	NA	NA	space	3.22325430339	8	1	4.16532099876	2015_Jul_14_1533	283.057880698	KRITL	1	31021	NA	1.17039150241689	0.310245455640366	1.42679334317964	0.240077535512316	Chunks = 2	4th
96				NA	NA		NA	NA	('ADD', 'DOUBLE', 'DECREASE', 'THIRD', 'x', 'y')	double	Length = 4	(2, 1, 2, 8)	8	8	6	6	decrease	ADD	third	BUUUxy	NA	NA	NA	NA	0	7	7	10			NA	NA	NA	space	2.2348289956	8	1	3.70401628589	2015_Jul_13_1550	287.784491609	KRITL	1	31019	NA	0.804164713102543	0.44746152925742	1.30941771361282	0.269977214681636	Chunks = 2	4th
97				NA	NA		NA	NA	('ADD', 'DOUBLE', 'DECREASE', 'THIRD', 'x', 'y')	double	Length = 4	(2, 1, 2, 8)	8	8	6	6	decrease	ADD	third	BUUUxy	NA	NA	NA	NA	0	7	7	10			NA	NA	NA	space	8.33358379055	8	1	11.223335495	2015_Jul_09_1535	None	KRITL	1	31016	NA	2.12029359061445	0.119996393524472	2.41799513710955	0.0891000719389971	Chunks = 2	4th
98				NA	NA		NA	NA	('ADD', 'DOUBLE', 'DECREASE', 'THIRD', 'x', 'y')	double	Length = 4	(2, 1, 2, 8)	8	8	6	6	decrease	ADD	third	BUUUxy	NA	NA	NA	NA	0	9	9	10				NA	NA	space	7.79879262508	8	1	6.34255004412	2015_Jul_09_1535	360.822427182	KRITL	1	31017	NA	2.05396893005767	0.128224976361612	1.84728090274318	0.157665291254118	Chunks = 2	4th
99				NA	NA		NA	NA	('ADD', 'DOUBLE', 'DECREASE', 'THIRD', 'x', 'y')	double	Length = 4	(2, 1, 2, 8)	8	8	6	6	decrease	ADD	third	BUUUxy	NA	NA	NA	NA	0	9	9	10			NA	NA	NA	space	2.29990661635	8	1	7.14952026671	2015_Jul_07_1543	60.0017041557	KRITL	1	31006	NA	0.832868520523881	0.43480026227631	1.96704525888987	0.139869524484916	Chunks = 2	4th
100				NA	NA		NA	NA	('ADD', 'DOUBLE', 'DECREASE', 'THIRD', 'x', 'y')	double	Length = 4	(2, 1, 2, 8)	8	8	6	6	decrease	ADD	third	BUUUxy	NA	NA	NA	NA	0	9	9	10			NA	NA	NA	space	2.78321510099	8	1	2.98322755669	2015_Jul_07_1404	60.0082342211	KRITL	1	31004	NA	1.02360677060618	0.359296699577512	1.09300578713198	0.335207415792826	Chunks = 2	4th
101				NA	NA		NA	NA	('ADD', 'DOUBLE', 'DECREASE', 'THIRD', 'x', 'y')	double	Length = 4	(2, 1, 2, 8)	8	8	6	6	decrease	ADD	third	BUUUxy	NA	NA	NA	NA	0	10	10	10			NA	NA	NA	space	7.20345791915	8	1	5.11788694852	2015_Jul_17_1555	None	KRITL	1	31020	NA	1.97456117727955	0.138822217221753	1.63274164849793	0.195393139797506	Chunks = 2	4th
102				NA	NA		NA	NA	('ADD', 'DOUBLE', 'DECREASE', 'THIRD', 'x', 'y')	double	Length = 4	(2, 1, 2, 8)	8	8	6	6	decrease	ADD	third	BUUUxy	NA	NA	NA	NA	0	11	11	10				NA	NA	space	4.78857975168	8	1	5.5421965241	2015_Jul_08_1553	None	KRITL	1	31011	NA	1.56623386467639	0.208830185954231	1.71239090667457	0.180433875928351	Chunks = 2	4th
103				NA	NA		NA	NA	('ADD', 'DOUBLE', 'DECREASE', 'THIRD', 'x', 'y')	double	Length = 4	(2, 1, 2, 8)	8	8	6	6	decrease	ADD	third	BUUUxy	NA	NA	NA	NA	0	11	11	10				NA	NA	space	9.1923448288	8	1	6.11025774461	2015_Jul_09_1334	None	KRITL	1	31014	NA	2.21837105385501	0.108786171387627	1.80996895635434	0.163659217302596	Chunks = 2	4th
105				NA	NA		NA	NA	('ADD', 'DOUBLE', 'DECREASE', 'THIRD', 'x', 'y')	double	Length = 4	(2, 1, 2, 8)	8	8	6	6	decrease	ADD	third	BUUUxy	NA	NA	NA	NA	0	12	12	10				NA	NA	space	6.47646758061	8	1	11.0857641505	2015_Jul_07_1549	287.31282802	KRITL	1	31005	NA	1.86817523527967	0.154405157989815	2.40566177623586	0.0902057798112994	Chunks = 2	4th
106				NA	NA		NA	NA	('ADD', 'DOUBLE', 'DECREASE', 'THIRD', 'x', 'y')	double	Length = 4	(2, 1, 2, 8)	8	8	6	6	decrease	ADD	third	BUUUxy	NA	NA	NA	NA	0	12	12	10			NA	NA	NA	space	2.77729898885	8	1	7.02348149971	2015_Jul_21_1534	None	KRITL	1	31027	NA	1.0214788686616	0.360062061742251	1.94925903522969	0.142379530727217	Chunks = 2	4th
107				NA	NA		NA	NA	('ADD', 'DOUBLE', 'DECREASE', 'THIRD', 'x', 'y')	double	Length = 4	(2, 1, 2, 8)	8	8	6	6	decrease	ADD	third	BUUUxy	NA	NA	NA	NA	0	14	14	10			NA	NA	NA	space	1.59097423183	8	1	6.06983416282	2015_Jul_22_1134	281.773905697	KRITL	1	31028	NA	0.464346553014559	0.628545692314426	1.80333128391071	0.164749146875441	Chunks = 2	4th
108				NA	NA		NA	NA	('ADD', 'DOUBLE', 'DECREASE', 'THIRD', 'x', 'y')	double	Length = 4	(2, 1, 2, 8)	8	8	6	6	decrease	ADD	third	BUUUxy	NA	NA	NA	NA	0	14	14	10			NA	NA	NA	space	2.15309693849	8	1	4.03611540495	2015_Jul_07_1404	None	KRITL	1	31003	NA	0.766907242213041	0.464447272263234	1.39528269597503	0.247762984867473	Chunks = 2	4th
109				NA	NA		NA	NA	('ADD', 'DOUBLE', 'DECREASE', 'THIRD', 'x', 'y')	double	Length = 4	(2, 1, 2, 8)	8	8	6	6	decrease	ADD	third	BUUUxy	NA	NA	NA	NA	0	15	15	10				NA	NA	space	3.75102723029	8	1	3.55848817178	2015_Jul_16_1551	None	KRITL	1	31026	NA	1.32202973054821	0.266593639183656	1.26933578381742	0.281018216648951	Chunks = 2	4th
110				NA	NA		NA	NA	('ADD', 'DOUBLE', 'DECREASE', 'THIRD', 'x', 'y')	double	Length = 4	(2, 1, 2, 8)	8	8	6	6	decrease	ADD	third	BUUUxy	NA	NA	NA	NA	0	15	15	10			NA	NA	NA	space	3.43313042607	8	1	4.61641663412	2015_Jul_08_1336	60.0051538288	KRITL	1	31008	NA	1.23347250561814	0.291279350299758	1.52961878382424	0.216618229951124	Chunks = 2	4th
113				NA	NA		NA	NA	('ADD', 'DOUBLE', 'DECREASE', 'x', 'y')	double	Length = 3	(1, 2, 7)	7	7	5	2	decrease	ADD	0	BUUxy	NA	NA	NA	NA	0	2	2	4				NA	NA	space	8.13781841865	7	1	2.62130311702	2015_Jul_07_1549	287.31282802	KRITL	1	31005	NA	2.09652213655716	0.122883056435399	0.963671567032495	0.381489646697876	Chunks = 2	3rd
114				NA	NA		NA	NA	('ADD', 'DOUBLE', 'DECREASE', 'x', 'y')	double	Length = 3	(1, 2, 7)	7	7	5	2	decrease	ADD	0	BUUxy	NA	NA	NA	NA	0	2	2	4			NA	NA	NA	space	1.39700067298	7	1	6.74244297609	2015_Jul_08_1558	None	KRITL	1	31013	NA	0.334327562006992	0.715819268624158	1.90842231861222	0.148314194654103	Chunks = 2	3rd
116				NA	NA		NA	NA	('ADD', 'DOUBLE', 'DECREASE', 'x', 'y')	double	Length = 3	(1, 2, 7)	7	7	5	2	decrease	ADD	0	BUUxy	NA	NA	NA	NA	0	3	3	4				NA	NA	space	3.03538363387	7	1	3.03326916192	2015_Jul_07_1543	None	KRITL	1	31007	NA	1.1103378197753	0.329447648343889	1.10964096921993	0.329677304129192	Chunks = 2	3rd
117				NA	NA		NA	NA	('ADD', 'DOUBLE', 'DECREASE', 'x', 'y')	double	Length = 3	(1, 2, 7)	7	7	5	2	decrease	ADD	0	BUUxy	NA	NA	NA	NA	0	3	3	4			NA	NA	NA	space	5.4507340659	7	1	9.45864918994	2015_Jul_17_1555	None	KRITL	1	31020	NA	1.69575029059596	0.183461527917137	2.24692958110697	0.105723341665275	Chunks = 2	3rd
118				NA	NA		NA	NA	('ADD', 'DOUBLE', 'DECREASE', 'x', 'y')	double	Length = 3	(1, 2, 7)	7	7	5	2	decrease	ADD	0	BUUxy	NA	NA	NA	NA	0	3	3	4			NA	NA	NA	space	11.1737947209	7	1	4.006637072	2015_Jul_14_1534	340.004537469	KRITL	1	31022	NA	2.41357127972985	0.089495111103979	1.3879522540556	0.249585870152404	Chunks = 2	3rd
119				NA	NA		NA	NA	('ADD', 'DOUBLE', 'DECREASE', 'x', 'y')	double	Length = 3	(1, 2, 7)	7	7	5	2	decrease	ADD	0	BUUxy	NA	NA	NA	NA	0	5	5	4			NA	NA	NA	space	1.74997442128	7	1	2.93322401503	2015_Jul_08_1336	60.0051538288	KRITL	1	31008	NA	0.559601171417173	0.571436923785755	1.07610216451819	0.340921796247387	Chunks = 2	3rd
121				NA	NA		NA	NA	('ADD', 'DOUBLE', 'DECREASE', 'x', 'y')	double	Length = 3	(1, 2, 7)	7	7	5	2	decrease	ADD	0	BUUxy	NA	NA	NA	NA	0	7	7	4				NA	NA	space	10.0797444287	7	1	2.33695113915	2015_Jul_09_1334	None	KRITL	1	31014	NA	2.31052790802616	0.0992088645772313	0.848847147828528	0.427907962322106	Chunks = 2	3rd
122				NA	NA		NA	NA	('ADD', 'DOUBLE', 'DECREASE', 'x', 'y')	double	Length = 3	(1, 2, 7)	7	7	5	2	decrease	ADD	0	BUUxy	NA	NA	NA	NA	0	7	7	4			NA	NA	NA	space	0.633398839913	7	1	2.29995007448	2015_Jul_07_1404	60.0082342211	KRITL	1	31004	NA	-0.456654976402799	1.57878407250849	0.832887415951683	0.434792046616965	Chunks = 2	3rd
123				NA	NA		NA	NA	('ADD', 'DOUBLE', 'DECREASE', 'x', 'y')	double	Length = 3	(1, 2, 7)	7	7	5	2	decrease	ADD	0	BUUxy	NA	NA	NA	NA	0	7	7	4			NA	NA	NA	space	7.85085991277	7	1	3.37503171544	2015_Jul_15_1558	None	KRITL	1	31023	NA	2.06062306882294	0.127374582034438	1.21640472144775	0.296293511976563	Chunks = 2	3rd
124				NA	NA		NA	NA	('ADD', 'DOUBLE', 'DECREASE', 'x', 'y')	double	Length = 3	(1, 2, 7)	7	7	5	2	decrease	ADD	0	BUUxy	NA	NA	NA	NA	0	8	8	4			NA	NA	NA	space	1.65968536184	7	1	3.19773671619	2015_Jul_14_1533	283.057880698	KRITL	1	31021	NA	0.506628043343034	0.602523841561967	1.16244328337725	0.312721180245091	Chunks = 2	3rd
125				NA	NA		NA	NA	('ADD', 'DOUBLE', 'DECREASE', 'x', 'y')	double	Length = 3	(1, 2, 7)	7	7	5	2	decrease	ADD	0	BUUxy	NA	NA	NA	NA	0	10	10	4			NA	NA	NA	space	1.84581194803	7	1	3.47744179131	2015_Jul_07_1404	360.230878236	KRITL	1	31002	NA	0.612919260918648	0.541766999106968	1.24629690601541	0.287567717883579	Chunks = 2	3rd
126				NA	NA		NA	NA	('ADD', 'DOUBLE', 'DECREASE', 'x', 'y')	double	Length = 3	(1, 2, 7)	7	7	5	2	decrease	ADD	0	BUUxy	NA	NA	NA	NA	0	10	10	4			NA	NA	NA	space	2.98184004499	7	1	2.86998331724	2015_Jul_10_1353	None	KRITL	1	31018	NA	1.09254057472613	0.335363394720039	1.05430621694627	0.348434081129669	Chunks = 2	3rd
127				NA	NA		NA	NA	('ADD', 'DOUBLE', 'DECREASE', 'x', 'y')	double	Length = 3	(1, 2, 7)	7	7	5	2	decrease	ADD	0	BUUxy	NA	NA	NA	NA	0	11	11	4				NA	NA	space	2.8060371008	7	1	2.67818884923	2015_Jul_16_1335	360.287380426	KRITL	1	31025	NA	1.03177320354582	0.356374475488902	0.985140763539185	0.373386664008965	Chunks = 2	3rd
128				NA	NA		NA	NA	('ADD', 'DOUBLE', 'DECREASE', 'x', 'y')	double	Length = 3	(1, 2, 7)	7	7	5	2	decrease	ADD	0	BUUxy	NA	NA	NA	NA	0	11	11	4			NA	NA	NA	space	1.52300152479	7	1	2.57800178551	2015_Jul_21_1534	None	KRITL	1	31027	NA	0.420683075087835	0.656598160752259	0.947014597111791	0.387897326379148	Chunks = 2	3rd
129				NA	NA		NA	NA	('ADD', 'DOUBLE', 'DECREASE', 'x', 'y')	double	Length = 3	(1, 2, 7)	7	7	5	2	decrease	ADD	0	BUUxy	NA	NA	NA	NA	0	12	12	4				NA	NA	space	2.1773647212	7	1	2.46300426498	2015_Jul_09_1534	None	KRITL	1	31015	NA	0.778115302074109	0.459270782824512	0.901381850756877	0.406008229144548	Chunks = 2	3rd
130				NA	NA		NA	NA	('ADD', 'DOUBLE', 'DECREASE', 'x', 'y')	double	Length = 3	(1, 2, 7)	7	7	5	2	decrease	ADD	0	BUUxy	NA	NA	NA	NA	0	12	12	4			NA	NA	NA	space	1.50804739847	7	1	2.55082325221	2015_Jul_08_1336	357.524927026	KRITL	1	31010	NA	0.410815700437964	0.663109131062165	0.936416151071345	0.392030298113996	Chunks = 2	3rd
131				NA	NA		NA	NA	('ADD', 'DOUBLE', 'DECREASE', 'x', 'y')	double	Length = 3	(1, 2, 7)	7	7	5	2	decrease	ADD	0	BUUxy	NA	NA	NA	NA	0	13	13	4				NA	NA	space	1.59489277293	7	1	4.53229305521	2015_Jul_16_1551	None	KRITL	1	31026	NA	0.466806506973837	0.627001399073924	1.51122800462547	0.220638865982082	Chunks = 2	3rd
132				NA	NA		NA	NA	('ADD', 'DOUBLE', 'DECREASE', 'x', 'y')	double	Length = 3	(1, 2, 7)	7	7	5	2	decrease	ADD	0	BUUxy	NA	NA	NA	NA	0	13	13	4			NA	NA	NA	space	1.08493333717	7	1	2.73178518825	2015_Jul_13_1550	287.784491609	KRITL	1	31019	NA	0.0815185447085711	0.921715616747896	1.00495531059743	0.366060993485585	Chunks = 2	3rd
133				NA	NA		NA	NA	('ADD', 'DOUBLE', 'DECREASE', 'x', 'y')	double	Length = 3	(1, 2, 7)	7	7	5	2	decrease	ADD	0	BUUxy	NA	NA	NA	NA	0	13	13	4			NA	NA	NA	space	2.26812312135	7	1	1.89163380802	2015_Jul_08_1337	None	KRITL	1	31009	NA	0.818952670701581	0.440893173120511	0.637440904338801	0.52864354388269	Chunks = 2	3rd
134				NA	NA		NA	NA	('ADD', 'DOUBLE', 'DECREASE', 'x', 'y')	double	Length = 3	(1, 2, 7)	7	7	5	2	decrease	ADD	0	BUUxy	NA	NA	NA	NA	0	15	15	4				NA	NA	space	2.11469453019	7	1	3.02829969788	2015_Jul_08_1553	None	KRITL	1	31011	NA	0.748910371896987	0.472881537131584	1.10800130619925	0.330218307223708	Chunks = 2	3rd
135				NA	NA		NA	NA	('ADD', 'DOUBLE', 'DECREASE', 'x', 'y')	double	Length = 3	(1, 2, 7)	7	7	5	2	decrease	ADD	0	BUUxy	NA	NA	NA	NA	0	16	16	4			NA	NA	NA	space	1.02831544618	7	1	2.36043382721	2015_Jul_07_1404	None	KRITL	1	31003	NA	0.0279219742235339	0.972464241118631	0.85884542723274	0.423650935888335	Chunks = 2	3rd
138				NA	NA		NA	NA	('ADD', 'DOUBLE', 'DECREASE', 'x', 'y')	double	Length = 3	(1, 2, 7)	7	7	5	2	decrease	ADD	0	BUUxy	NA	NA	NA	NA	0	17	17	4			NA	NA	NA	space	1.06715729214	7	1	4.08052904678	2015_Jul_22_1134	281.773905697	KRITL	1	31028	NA	0.0649983767690111	0.937068984455583	1.40622664833829	0.245066261883153	Chunks = 2	3rd
139				NA	NA		NA	NA	('ADD', 'DOUBLE', 'DECREASE', 'x', 'y')	double	Length = 3	(1, 2, 7)	7	7	5	2	decrease	ADD	0	BUUxy	NA	NA	NA	NA	0	17	17	4			NA	NA	NA	space	1.80861967051	7	1	3.28361355493	2015_Jul_09_1535	None	KRITL	1	31016	NA	0.592563941362632	0.552907842541609	1.18894450955326	0.304542536224644	Chunks = 2	3rd
140				NA	NA		NA	NA	('ADD', 'DOUBLE', 'DECREASE', 'x', 'y')	double	Length = 3	(1, 2, 7)	7	7	5	2	decrease	ADD	0	BUUxy	NA	NA	NA	NA	0	17	17	4			NA	NA	NA	space	1.96660704576	7	1	3.8831469025	2015_Jul_07_1543	60.0017041557	KRITL	1	31006	NA	0.676309746068779	0.508489991508979	1.35664588225127	0.257523092766898	Chunks = 2	3rd
141				NA	NA		NA	NA	('ADD', 'DOUBLE', 'x', 'y')	double	Length = 2	(4, 8)	8	8	4	2	0	ADD	0	BUxy	NA	NA	NA	NA	0	0	0	0			NA	NA	NA	space	1.22034627339	8	1	4.75776569247	2015_Jul_07_1404	360.230878236	KRITL	1	31002	NA	0.199134649120408	0.819439549089702	1.55977816570602	0.210182691758587	Chunks = 2	2nd
142				NA	NA		NA	NA	('ADD', 'DOUBLE', 'x', 'y')	double	Length = 2	(4, 8)	8	8	4	2	0	ADD	0	BUxy	NA	NA	NA	NA	0	0	0	0			NA	NA	NA	space	1.83282524469	8	1	1.75606985411	2015_Jul_10_1353	None	KRITL	1	31018	NA	0.605858625900134	0.545605754229524	0.563078274666587	0.569453429007705	Chunks = 2	2nd
143				NA	NA		NA	NA	('ADD', 'DOUBLE', 'x', 'y')	double	Length = 2	(4, 8)	8	8	4	2	0	ADD	0	BUxy	NA	NA	NA	NA	0	1	1	0			NA	NA	NA	space	1.92668440049	8	1	4.67569374134	2015_Jul_22_1134	281.773905697	KRITL	1	31028	NA	0.655800598380391	0.51902636453883	1.54237754560089	0.213872006020953	Chunks = 2	2nd
144				NA	NA		NA	NA	('ADD', 'DOUBLE', 'x', 'y')	double	Length = 2	(4, 8)	8	8	4	2	0	ADD	0	BUxy	NA	NA	NA	NA	0	1	1	0			NA	NA	NA	space	2.22322770618	8	1	4.40557127862	2015_Jul_09_1535	None	KRITL	1	31016	NA	0.798960061666092	0.449796481584076	1.4828699396558	0.226985318533591	Chunks = 2	2nd
145				NA	NA		NA	NA	('ADD', 'DOUBLE', 'x', 'y')	double	Length = 2	(4, 8)	8	8	4	2	0	ADD	0	BUxy	NA	NA	NA	NA	0	2	2	0			NA	NA	NA	space	1.5557663106	8	1	3.16192403649	2015_Jul_07_1404	None	KRITL	1	31003	NA	0.441968228487437	0.642770056908057	1.15118071461825	0.316263132339537	Chunks = 2	2nd
146				NA	NA		NA	NA	('ADD', 'DOUBLE', 'x', 'y')	double	Length = 2	(4, 8)	8	8	4	2	0	ADD	0	BUxy	NA	NA	NA	NA	0	3	3	0			NA	NA	NA	space	0.755020313663	8	1	1.3549259635	2015_Jul_13_1550	287.784491609	KRITL	1	31019	NA	-0.281010624581152	1.32446767577481	0.303746813355478	0.738047706619211	Chunks = 2	2nd
147				NA	NA		NA	NA	('ADD', 'DOUBLE', 'x', 'y')	double	Length = 2	(4, 8)	8	8	4	2	0	ADD	0	BUxy	NA	NA	NA	NA	0	3	3	0			NA	NA	NA	space	1.50872301476	8	1	3.74582852279	2015_Jul_08_1558	None	KRITL	1	31013	NA	0.411263607443636	0.662812186343611	1.32064282689032	0.26696363539225	Chunks = 2	2nd
148				NA	NA		NA	NA	('ADD', 'DOUBLE', 'x', 'y')	double	Length = 2	(4, 8)	8	8	4	2	0	ADD	0	BUxy	NA	NA	NA	NA	0	4	4	0			NA	NA	NA	space	0.783381063127	8	1	1.11670835112	2015_Jul_07_1404	60.0082342211	KRITL	1	31004	NA	-0.24413603071681	1.27651796433313	0.110385385833336	0.895488960028867	Chunks = 2	2nd
149				NA	NA		NA	NA	('ADD', 'DOUBLE', 'x', 'y')	double	Length = 2	(4, 8)	8	8	4	2	0	ADD	0	BUxy	NA	NA	NA	NA	0	5	5	0			NA	NA	NA	space	1.11668987284	8	1	1.75000932469	2015_Jul_08_1336	60.0051538288	KRITL	1	31008	NA	0.110368838600691	0.895503778015618	0.559621116315512	0.571425526648061	Chunks = 2	2nd
150				NA	NA		NA	NA	('ADD', 'DOUBLE', 'x', 'y')	double	Length = 2	(4, 8)	8	8	4	2	0	ADD	0	BUxy	NA	NA	NA	NA	0	7	7	0			NA	NA	NA	space	3.96060188073	8	1	1.77864735268	2015_Jul_14_1534	340.004537469	KRITL	1	31022	NA	1.3763960038004	0.252486877023773	0.575853161198101	0.562224995580623	Chunks = 2	2nd
151				NA	NA		NA	NA	('ADD', 'DOUBLE', 'x', 'y')	double	Length = 2	(4, 8)	8	8	4	2	0	ADD	0	BUxy	NA	NA	NA	NA	0	9	9	0			NA	NA	NA	space	0.850765456707	8	1	1.6554023049	2015_Jul_08_1336	357.524927026	KRITL	1	31010	NA	-0.161618797435867	1.17541208580639	0.504044063820491	0.604082764074929	Chunks = 2	2nd
152				NA	NA		NA	NA	('ADD', 'DOUBLE', 'x', 'y')	double	Length = 2	(4, 8)	8	8	4	2	0	ADD	0	BUxy	NA	NA	NA	NA	0	9	9	0			NA	NA	NA	space	0.996533961676	8	1	2.28704844649	2015_Jul_15_1558	None	KRITL	1	31023	NA	-0.00347205895067264	1.00347809352947	0.827262098239978	0.43724478225843	Chunks = 2	2nd
153				NA	NA		NA	NA	('ADD', 'DOUBLE', 'x', 'y')	double	Length = 2	(4, 8)	8	8	4	2	0	ADD	0	BUxy	NA	NA	NA	NA	0	10	10	0				NA	NA	space	1.93452498231	8	1	2.22086790243	2015_Jul_16_1551	None	KRITL	1	31026	NA	0.659861809166541	0.516922763543693	0.797898066524846	0.450274416999693	Chunks = 2	2nd
155				NA	NA		NA	NA	('ADD', 'DOUBLE', 'x', 'y')	double	Length = 2	(4, 8)	8	8	4	2	0	ADD	0	BUxy	NA	NA	NA	NA	0	11	11	0				NA	NA	space	1.28521752698	8	1	1.86173530895	2015_Jul_08_1551	357.897102275	KRITL	1	31012	NA	0.250927985717152	0.778078402299568	0.621509014587824	0.53713328376631	Chunks = 2	2nd
156				NA	NA		NA	NA	('ADD', 'DOUBLE', 'x', 'y')	double	Length = 2	(4, 8)	8	8	4	2	0	ADD	0	BUxy	NA	NA	NA	NA	0	11	11	0				NA	NA	space	1.94659067326	8	1	3.53947605567	2015_Jul_07_1549	287.31282802	KRITL	1	31005	NA	0.666079469701131	0.513718684537452	1.2639787093187	0.282527691746372	Chunks = 2	2nd
157				NA	NA		NA	NA	('ADD', 'DOUBLE', 'x', 'y')	double	Length = 2	(4, 8)	8	8	4	2	0	ADD	0	BUxy	NA	NA	NA	NA	0	11	11	0			NA	NA	NA	space	1.16631524501	8	1	1.62918009506	2015_Jul_08_1337	None	KRITL	1	31009	NA	0.153849415888978	0.857401122276701	0.488076879101477	0.613805682399509	Chunks = 2	2nd
158				NA	NA		NA	NA	('ADD', 'DOUBLE', 'x', 'y')	double	Length = 2	(4, 8)	8	8	4	2	0	ADD	0	BUxy	NA	NA	NA	NA	0	12	12	0				NA	NA	space	0.99581900092	8	1	1.76237107828	2015_Jul_08_1553	None	KRITL	1	31011	NA	-0.00418976389564194	1.00419855322718	0.566660105953732	0.567417391447412	Chunks = 2	2nd
159				NA	NA		NA	NA	('ADD', 'DOUBLE', 'x', 'y')	double	Length = 2	(4, 8)	8	8	4	2	0	ADD	0	BUxy	NA	NA	NA	NA	0	12	12	0				NA	NA	space	1.15677860689	8	1	2.21441415731	2015_Jul_16_1335	360.287380426	KRITL	1	31025	NA	0.145639078899008	0.864469652225416	0.794987879714671	0.451586708249178	Chunks = 2	2nd
160				NA	NA		NA	NA	('ADD', 'DOUBLE', 'x', 'y')	double	Length = 2	(4, 8)	8	8	4	2	0	ADD	0	BUxy	NA	NA	NA	NA	0	13	13	0				NA	NA	space	3.17142831147	8	1	1.28436638109	2015_Jul_09_1534	None	KRITL	1	31015	NA	1.154182057854	0.315315341161373	0.250265508093085	0.778594032608774	Chunks = 2	2nd
161				NA	NA		NA	NA	('ADD', 'DOUBLE', 'x', 'y')	double	Length = 2	(4, 8)	8	8	4	2	0	ADD	0	BUxy	NA	NA	NA	NA	0	13	13	0			NA	NA	NA	space	2.18324890936	8	1	3.88315169317	2015_Jul_07_1543	60.0017041557	KRITL	1	31006	NA	0.780814092762743	0.45803297815142	1.35664711595866	0.25752277505895	Chunks = 2	2nd
162				NA	NA		NA	NA	('ADD', 'DOUBLE', 'x', 'y')	double	Length = 2	(4, 8)	8	8	4	2	0	ADD	0	BUxy	NA	NA	NA	NA	0	14	14	0				NA	NA	space	1.5751451206	8	1	1.55618626531	2015_Jul_07_1543	None	KRITL	1	31007	NA	0.454347408096454	0.634862138682868	0.442238126374571	0.642596598036929	Chunks = 2	2nd
163				NA	NA		NA	NA	('ADD', 'DOUBLE', 'x', 'y')	double	Length = 2	(4, 8)	8	8	4	2	0	ADD	0	BUxy	NA	NA	NA	NA	0	14	14	0				NA	NA	space	2.01908280872	8	1	1.40856661607	2015_Jul_09_1334	None	KRITL	1	31014	NA	0.702643353209778	0.49527438680633	0.34257260297023	0.70994157364745	Chunks = 2	2nd
164				NA	NA		NA	NA	('ADD', 'DOUBLE', 'x', 'y')	double	Length = 2	(4, 8)	8	8	4	2	0	ADD	0	BUxy	NA	NA	NA	NA	0	14	14	0			NA	NA	NA	space	5.22533063674	8	1	1.48617241791	2015_Jul_21_1534	None	KRITL	1	31027	NA	1.65351807560765	0.191375449616311	0.396203967768046	0.672869438262283	Chunks = 2	2nd
165				NA	NA		NA	NA	('ADD', 'DOUBLE', 'x', 'y')	double	Length = 2	(4, 8)	8	8	4	2	0	ADD	0	BUxy	NA	NA	NA	NA	0	15	15	0			NA	NA	NA	space	1.12695450231	8	1	1.54799451673	2015_Jul_14_1533	283.057880698	KRITL	1	31021	NA	0.119518863621606	0.887347269078057	0.436960232997179	0.645997120269141	Chunks = 2	2nd
167				NA	NA		NA	NA	('ADD', 'DOUBLE', 'x', 'y')	double	Length = 2	(4, 8)	8	8	4	2	0	ADD	0	BUxy	NA	NA	NA	NA	0	17	17	0				NA	NA	space	1.70412722432	8	1	3.2758303671	2015_Jul_16_1335	None	KRITL	1	31024	NA	0.533053087779668	0.586810647543661	1.18657138415566	0.305266112080545	Chunks = 2	2nd
168				NA	NA		NA	NA	('ADD', 'DOUBLE', 'x', 'y')	double	Length = 2	(4, 8)	8	8	4	2	0	ADD	0	BUxy	NA	NA	NA	NA	0	17	17	0			NA	NA	NA	space	1.74405735763	8	1	1.61488618664	2015_Jul_17_1555	None	KRITL	1	31020	NA	0.556214213495283	0.573375637919902	0.479264481522574	0.619238685842401	Chunks = 2	2nd
170				NA	NA		NA	NA	('ADD', 'HALF', 'THIRD', 'x', 'y')	half	Length = 3	(2, 1, 9)	9	9	8	6	third	ADD	0	BUUxy	NA	NA	NA	NA	0	1	1	4				NA	NA	space	1.83086484854	9	1	3.33283670494	2015_Jul_08_1551	357.897102275	KRITL	1	31012	NA	0.604788450046165	0.546189960879656	1.20382380470804	0.300044703215666	Chunks = 2	3rd
171				NA	NA		NA	NA	('ADD', 'HALF', 'THIRD', 'x', 'y')	half	Length = 3	(2, 1, 9)	9	9	8	6	third	ADD	0	BUUxy	NA	NA	NA	NA	0	1	1	4				NA	NA	space	6.70182901414	9	1	2.87654863216	2015_Jul_09_1334	None	KRITL	1	31014	NA	1.90238047632777	0.149212998106954	1.05659118389131	0.347638829679407	Chunks = 2	3rd
172				NA	NA		NA	NA	('ADD', 'HALF', 'THIRD', 'x', 'y')	half	Length = 3	(2, 1, 9)	9	9	8	6	third	ADD	0	BUUxy	NA	NA	NA	NA	0	2	2	4			NA	NA	NA	space	2.56656434046	9	1	3.94980791165	2015_Jul_08_1336	60.0051538288	KRITL	1	31008	NA	0.942568172043558	0.389625922964695	1.37366694776853	0.253176868943548	Chunks = 2	3rd
173				NA	NA		NA	NA	('ADD', 'HALF', 'THIRD', 'x', 'y')	half	Length = 3	(2, 1, 9)	9	9	8	6	third	ADD	0	BUUxy	NA	NA	NA	NA	0	2	2	4			NA	NA	NA	space	2.91687912366	9	1	9.58746759775	2015_Jul_08_1558	None	KRITL	1	31013	NA	1.07051425144625	0.342832170139856	2.26045678705272	0.104302829689321	Chunks = 2	3rd
174				NA	NA		NA	NA	('ADD', 'HALF', 'THIRD', 'x', 'y')	half	Length = 3	(2, 1, 9)	9	9	8	6	third	ADD	0	BUUxy	NA	NA	NA	NA	0	3	3	4				NA	NA	space	3.30941006306	9	1	4.65010301175	2015_Jul_16_1551	None	KRITL	1	31026	NA	1.19676994482157	0.302168658747403	1.53688937241841	0.215048999446501	Chunks = 2	3rd
176				NA	NA		NA	NA	('ADD', 'HALF', 'THIRD', 'x', 'y')	half	Length = 3	(2, 1, 9)	9	9	8	6	third	ADD	0	BUUxy	NA	NA	NA	NA	0	3	3	4			NA	NA	NA	space	2.08457407729	9	1	3.34921688642	2015_Jul_07_1404	360.230878236	KRITL	1	31002	NA	0.734564554905652	0.479714302741415	1.20872655326186	0.298577259673651	Chunks = 2	3rd
177				NA	NA		NA	NA	('ADD', 'HALF', 'THIRD', 'x', 'y')	half	Length = 3	(2, 1, 9)	9	9	8	6	third	ADD	0	BUUxy	NA	NA	NA	NA	0	3	3	4			NA	NA	NA	space	2.47370566881	9	1	7.48702177928	2015_Jul_15_1558	None	KRITL	1	31023	NA	0.905717297131313	0.404251812415929	2.01317109219049	0.133564457200786	Chunks = 2	3rd
178				NA	NA		NA	NA	('ADD', 'HALF', 'THIRD', 'x', 'y')	half	Length = 3	(2, 1, 9)	9	9	8	6	third	ADD	0	BUUxy	NA	NA	NA	NA	0	3	3	4			NA	NA	NA	space	2.82958493281	9	1	3.70936127815	2015_Jul_10_1353	None	KRITL	1	31018	NA	1.04013003404692	0.353408723804209	1.31085969957401	0.269588191878344	Chunks = 2	3rd
179				NA	NA		NA	NA	('ADD', 'HALF', 'THIRD', 'x', 'y')	half	Length = 3	(2, 1, 9)	9	9	8	6	third	ADD	0	BUUxy	NA	NA	NA	NA	0	4	4	4			NA	NA	NA	space	1.95826713429	9	1	1.3953879262	2015_Jul_08_1336	357.524927026	KRITL	1	31010	NA	0.672059967023944	0.510655559953809	0.333172459912826	0.716646590689126	Chunks = 2	3rd
180				NA	NA		NA	NA	('ADD', 'HALF', 'THIRD', 'x', 'y')	half	Length = 3	(2, 1, 9)	9	9	8	6	third	ADD	0	BUUxy	NA	NA	NA	NA	0	5	5	4				NA	NA	space	2.51753433392	9	1	4.49788395323	2015_Jul_08_1553	None	KRITL	1	31011	NA	0.923279983618873	0.397214046508323	1.50360705356669	0.222326767519621	Chunks = 2	3rd
181				NA	NA		NA	NA	('ADD', 'HALF', 'THIRD', 'x', 'y')	half	Length = 3	(2, 1, 9)	9	9	8	6	third	ADD	0	BUUxy	NA	NA	NA	NA	0	5	5	4			NA	NA	NA	space	0.998404866492	9	1	3.99128415954	2015_Jul_13_1550	287.784491609	KRITL	1	31019	NA	-0.00159640708798777	1.00159768202413	1.38411302361718	0.250545929587547	Chunks = 2	3rd
182				NA	NA		NA	NA	('ADD', 'HALF', 'THIRD', 'x', 'y')	half	Length = 3	(2, 1, 9)	9	9	8	6	third	ADD	0	BUUxy	NA	NA	NA	NA	0	5	5	4			NA	NA	NA	space	3.0505231779	9	1	2.64167764096	2015_Jul_14_1533	283.057880698	KRITL	1	31021	NA	1.1153131096468	0.327812621534778	0.97141418539323	0.378547323297401	Chunks = 2	3rd
183				NA	NA		NA	NA	('ADD', 'HALF', 'THIRD', 'x', 'y')	half	Length = 3	(2, 1, 9)	9	9	8	6	third	ADD	0	BUUxy	NA	NA	NA	NA	0	7	7	4			NA	NA	NA	space	2.26916706242	9	1	3.38263012255	2015_Jul_22_1134	281.773905697	KRITL	1	31028	NA	0.819412831302354	0.440690338125008	1.21865354966508	0.29562794741689	Chunks = 2	3rd
184				NA	NA		NA	NA	('ADD', 'HALF', 'THIRD', 'x', 'y')	half	Length = 3	(2, 1, 9)	9	9	8	6	third	ADD	0	BUUxy	NA	NA	NA	NA	0	9	9	4				NA	NA	space	2.3823691115	9	1	2.27820704537	2015_Jul_09_1534	None	KRITL	1	31015	NA	0.868095417576452	0.41975023734688	0.823388749994914	0.43894166776119	Chunks = 2	3rd
185				NA	NA		NA	NA	('ADD', 'HALF', 'THIRD', 'x', 'y')	half	Length = 3	(2, 1, 9)	9	9	8	6	third	ADD	0	BUUxy	NA	NA	NA	NA	0	10	10	4				NA	NA	space	1.7796003487	9	1	7.55049570577	2015_Jul_16_1335	None	KRITL	1	31024	NA	0.576388815892639	0.561923917766425	2.02161321749902	0.132441635485709	Chunks = 2	3rd
186				NA	NA		NA	NA	('ADD', 'HALF', 'THIRD', 'x', 'y')	half	Length = 3	(2, 1, 9)	9	9	8	6	third	ADD	0	BUUxy	NA	NA	NA	NA	0	11	11	4			NA	NA	NA	space	2.0167023571	9	1	5.5465481177	2015_Jul_21_1534	None	KRITL	1	31027	NA	0.701463680953574	0.495858993013719	1.71317577348573	0.180292314928059	Chunks = 2	3rd
187				NA	NA		NA	NA	('ADD', 'HALF', 'THIRD', 'x', 'y')	half	Length = 3	(2, 1, 9)	9	9	8	6	third	ADD	0	BUUxy	NA	NA	NA	NA	0	11	11	4			NA	NA	NA	space	3.26843595941	9	1	4.45625797939	2015_Jul_14_1534	340.004537469	KRITL	1	31022	NA	1.18431157061267	0.305956736622282	1.49430939578532	0.224403525250324	Chunks = 2	3rd
189				NA	NA		NA	NA	('ADD', 'HALF', 'THIRD', 'x', 'y')	half	Length = 3	(2, 1, 9)	9	9	8	6	third	ADD	0	BUUxy	NA	NA	NA	NA	0	13	13	4				NA	NA	space	2.69301418065	9	1	4.38673258592	2015_Jul_16_1335	360.287380426	KRITL	1	31025	NA	0.990661079560121	0.371331130443077	1.47858466430156	0.227960100237174	Chunks = 2	3rd
190				NA	NA		NA	NA	('ADD', 'HALF', 'THIRD', 'x', 'y')	half	Length = 3	(2, 1, 9)	9	9	8	6	third	ADD	0	BUUxy	NA	NA	NA	NA	0	13	13	4			NA	NA	NA	space	0.88419673407	9	1	7.14021566849	2015_Jul_08_1337	None	KRITL	1	31009	NA	-0.123075691252097	1.13097002224488	1.96574298156618	0.140051792050628	Chunks = 2	3rd
191				NA	NA		NA	NA	('ADD', 'HALF', 'THIRD', 'x', 'y')	half	Length = 3	(2, 1, 9)	9	9	8	6	third	ADD	0	BUUxy	NA	NA	NA	NA	0	15	15	4				NA	NA	space	1.83951640816	9	1	3.1101604192	2015_Jul_07_1543	None	KRITL	1	31007	NA	0.609502715425057	0.543621136274758	1.13467430659719	0.321526823448297	Chunks = 2	3rd
192				NA	NA		NA	NA	('ADD', 'HALF', 'THIRD', 'x', 'y')	half	Length = 3	(2, 1, 9)	9	9	8	6	third	ADD	0	BUUxy	NA	NA	NA	NA	0	15	15	4			NA	NA	NA	space	1.96661252079	9	1	6.49957003824	2015_Jul_07_1543	60.0017041557	KRITL	1	31006	NA	0.676312530062862	0.508488575877822	1.87173602675064	0.153856331129065	Chunks = 2	3rd
193				NA	NA		NA	NA	('ADD', 'HALF', 'THIRD', 'x', 'y')	half	Length = 3	(2, 1, 9)	9	9	8	6	third	ADD	0	BUUxy	NA	NA	NA	NA	0	16	16	4			NA	NA	NA	space	1.24190616042	9	1	3.36263753954	2015_Jul_07_1404	None	KRITL	1	31003	NA	0.216647425439456	0.805213817171025	1.21272564804383	0.297385605270081	Chunks = 2	3rd
194				NA	NA		NA	NA	('ADD', 'HALF', 'THIRD', 'x', 'y')	half	Length = 3	(2, 1, 9)	9	9	8	6	third	ADD	0	BUUxy	NA	NA	NA	NA	0	16	16	4			NA	NA	NA	space	3.6425959451	9	1	4.83294458222	2015_Jul_17_1555	None	KRITL	1	31020	NA	1.2926965991933	0.274529488055131	1.57545592625882	0.206913194014042	Chunks = 2	3rd
195				NA	NA		NA	NA	('ADD', 'HALF', 'THIRD', 'x', 'y')	half	Length = 3	(2, 1, 9)	9	9	8	6	third	ADD	0	BUUxy	NA	NA	NA	NA	0	17	17	4			NA	NA	NA	space	0.666565264357	9	1	2.23329043412	2015_Jul_07_1404	60.0082342211	KRITL	1	31004	NA	-0.405617223141569	1.50022818990522	0.803476028941338	0.447769795062073	Chunks = 2	3rd
196				NA	NA		NA	NA	('ADD', 'HALF', 'THIRD', 'x', 'y')	half	Length = 3	(2, 1, 9)	9	9	8	6	third	ADD	0	BUUxy	NA	NA	NA	NA	0	17	17	4			NA	NA	NA	space	3.11037848203	9	1	1.66412604845	2015_Jul_09_1535	None	KRITL	1	31016	NA	1.13474441718842	0.32150428180282	0.509300089800543	0.600916018910599	Chunks = 2	3rd
198				NA	NA		NA	NA	('ADD', 'HALF', 'x', 'y')	half	Length = 2	(2, 7)	7	7	5	4	0	ADD	0	BUxy	NA	NA	NA	NA	0	0	0	0			NA	NA	NA	space	1.62455567758	7	1	1.28597020899	2015_Jul_14_1533	283.057880698	KRITL	1	31021	NA	0.485234349211588	0.615552925517233	0.251513459909464	0.777622990804273	Chunks = 2	2nd
200				NA	NA		NA	NA	('ADD', 'HALF', 'x', 'y')	half	Length = 2	(2, 7)	7	7	5	4	0	ADD	0	BUxy	NA	NA	NA	NA	0	1	1	0			NA	NA	NA	space	2.22248998317	7	1	3.72439115978	2015_Jul_15_1558	None	KRITL	1	31023	NA	0.798628181385642	0.449945784940579	1.31490339143367	0.268500261411605	Chunks = 2	2nd
201				NA	NA		NA	NA	('ADD', 'HALF', 'x', 'y')	half	Length = 2	(2, 7)	7	7	5	4	0	ADD	0	BUxy	NA	NA	NA	NA	0	2	2	0			NA	NA	NA	space	2.34136347868	7	1	1.22823148407	2015_Jul_13_1550	287.784491609	KRITL	1	31019	NA	0.850733442872253	0.427101562446756	0.205575316903123	0.814178770834218	Chunks = 2	2nd
202				NA	NA		NA	NA	('ADD', 'HALF', 'x', 'y')	half	Length = 2	(2, 7)	7	7	5	4	0	ADD	0	BUxy	NA	NA	NA	NA	0	3	3	0				NA	NA	space	0.995009538208	7	1	1.37861331654	2015_Jul_08_1553	None	KRITL	1	31011	NA	-0.00500295573079757	1.00501549141025	0.321078150888887	0.725366560733483	Chunks = 2	2nd
203				NA	NA		NA	NA	('ADD', 'HALF', 'x', 'y')	half	Length = 2	(2, 7)	7	7	5	4	0	ADD	0	BUxy	NA	NA	NA	NA	0	3	3	0			NA	NA	NA	space	2.6446388757	7	1	1.3513036619	2015_Jul_07_1404	None	KRITL	1	31003	NA	0.972534525062791	0.378123459194524	0.301069801967208	0.740026115665187	Chunks = 2	2nd
204				NA	NA		NA	NA	('ADD', 'HALF', 'x', 'y')	half	Length = 2	(2, 7)	7	7	5	4	0	ADD	0	BUxy	NA	NA	NA	NA	0	4	4	0				NA	NA	space	2.31983162556	7	1	1.68485263563	2015_Jul_16_1551	None	KRITL	1	31026	NA	0.841494607854857	0.431065767438446	0.521678103380367	0.593523717655034	Chunks = 2	2nd
205				NA	NA		NA	NA	('ADD', 'HALF', 'x', 'y')	half	Length = 2	(2, 7)	7	7	5	4	0	ADD	0	BUxy	NA	NA	NA	NA	0	4	4	0			NA	NA	NA	space	2.0123988562	7	1	1.8306649201	2015_Jul_17_1555	None	KRITL	1	31020	NA	0.699327471258796	0.49691938400735	0.604679245176708	0.546249610740001	Chunks = 2	2nd
206				NA	NA		NA	NA	('ADD', 'HALF', 'x', 'y')	half	Length = 2	(2, 7)	7	7	5	4	0	ADD	0	BUxy	NA	NA	NA	NA	0	4	4	0			NA	NA	NA	space	4.1654107809	7	1	2.77470979918	2015_Jul_08_1336	357.524927026	KRITL	1	31010	NA	1.42681489762224	0.240072360830625	1.02054616485778	0.360398049661095	Chunks = 2	2nd
207				NA	NA		NA	NA	('ADD', 'HALF', 'x', 'y')	half	Length = 2	(2, 7)	7	7	5	4	0	ADD	0	BUxy	NA	NA	NA	NA	0	5	5	0			NA	NA	NA	space	0.500067582529	7	1	1.30003288446	2015_Jul_07_1404	60.0082342211	KRITL	1	31004	NA	-0.693012024635919	1.99972970641825	0.262389559886021	0.769211311462613	Chunks = 2	2nd
208				NA	NA		NA	NA	('ADD', 'HALF', 'x', 'y')	half	Length = 2	(2, 7)	7	7	5	4	0	ADD	0	BUxy	NA	NA	NA	NA	0	5	5	0			NA	NA	NA	space	1.53604956323	7	1	1.46775978927	2015_Jul_10_1353	None	KRITL	1	31018	NA	0.429213901932753	0.651020659709185	0.383737285515798	0.681310393778642	Chunks = 2	2nd
209				NA	NA		NA	NA	('ADD', 'HALF', 'x', 'y')	half	Length = 2	(2, 7)	7	7	5	4	0	ADD	0	BUxy	NA	NA	NA	NA	0	5	5	0			NA	NA	NA	space	1.60457171294	7	1	1.91054933418	2015_Jul_21_1534	None	KRITL	1	31027	NA	0.472856875452129	0.623219262769961	0.647390810225174	0.523409671820485	Chunks = 2	2nd
210				NA	NA		NA	NA	('ADD', 'HALF', 'x', 'y')	half	Length = 2	(2, 7)	7	7	5	4	0	ADD	0	BUxy	NA	NA	NA	NA	0	7	7	0				NA	NA	space	2.17766211095	7	1	1.57620017353	2015_Jul_09_1334	None	KRITL	1	31014	NA	0.778251875170865	0.459208063074465	0.455016997031303	0.634437184307902	Chunks = 2	2nd
211				NA	NA		NA	NA	('ADD', 'HALF', 'x', 'y')	half	Length = 2	(2, 7)	7	7	5	4	0	ADD	0	BUxy	NA	NA	NA	NA	0	8	8	0				NA	NA	space	1.54142940684	7	1	1.58746344207	2015_Jul_07_1543	None	KRITL	1	31007	NA	0.43271017218678	0.648748489916282	0.462137422902224	0.629935766392222	Chunks = 2	2nd
212				NA	NA		NA	NA	('ADD', 'HALF', 'x', 'y')	half	Length = 2	(2, 7)	7	7	5	4	0	ADD	0	BUxy	NA	NA	NA	NA	0	8	8	0			NA	NA	NA	space	1.66461319762	7	1	1.95074753949	2015_Jul_09_1535	None	KRITL	1	31016	NA	0.509592782701648	0.600740160795169	0.668212652699059	0.512623996573866	Chunks = 2	2nd
213				NA	NA		NA	NA	('ADD', 'HALF', 'x', 'y')	half	Length = 2	(2, 7)	7	7	5	4	0	ADD	0	BUxy	NA	NA	NA	NA	0	8	8	0			NA	NA	NA	space	4.08310015936	7	1	5.38300643352	2015_Jul_07_1543	60.0017041557	KRITL	1	31006	NA	1.40685654286194	0.244911944593773	1.68324703473322	0.185769794695581	Chunks = 2	2nd
214				NA	NA		NA	NA	('ADD', 'HALF', 'x', 'y')	half	Length = 2	(2, 7)	7	7	5	4	0	ADD	0	BUxy	NA	NA	NA	NA	0	9	9	0			NA	NA	NA	space	1.15194784424	7	1	3.17001085936	2015_Jul_08_1337	None	KRITL	1	31009	NA	0.141454287151574	0.868094857766544	1.15373501354894	0.3154563326013	Chunks = 2	2nd
215				NA	NA		NA	NA	('ADD', 'HALF', 'x', 'y')	half	Length = 2	(2, 7)	7	7	5	4	0	ADD	0	BUxy	NA	NA	NA	NA	0	9	9	0			NA	NA	NA	space	5.55480460571	7	1	2.2157623274	2015_Jul_14_1534	340.004537469	KRITL	1	31022	NA	1.71466324798331	0.180024334064255	0.795596510154686	0.451311942456126	Chunks = 2	2nd
216				NA	NA		NA	NA	('ADD', 'HALF', 'x', 'y')	half	Length = 2	(2, 7)	7	7	5	4	0	ADD	0	BUxy	NA	NA	NA	NA	0	10	10	0				NA	NA	space	1.74487366536	7	1	1.17218877943	2015_Jul_09_1534	None	KRITL	1	31015	NA	0.556682154959025	0.573107394450636	0.158872752782677	0.853104907288287	Chunks = 2	2nd
217				NA	NA		NA	NA	('ADD', 'HALF', 'x', 'y')	half	Length = 2	(2, 7)	7	7	5	4	0	ADD	0	BUxy	NA	NA	NA	NA	0	10	10	0				NA	NA	space	3.66860630043	7	1	1.62287942029	2015_Jul_09_1535	360.822427182	KRITL	1	31017	NA	1.29981183529019	0.272583078724689	0.484201991434847	0.616188724496429	Chunks = 2	2nd
218				NA	NA		NA	NA	('ADD', 'HALF', 'x', 'y')	half	Length = 2	(2, 7)	7	7	5	4	0	ADD	0	BUxy	NA	NA	NA	NA	0	14	14	0				NA	NA	space	2.21077250589	7	1	5.91982966577	2015_Jul_16_1335	None	KRITL	1	31024	NA	0.793342004627702	0.452330575550299	1.77830767580799	0.16892377930775	Chunks = 2	2nd
219				NA	NA		NA	NA	('ADD', 'HALF', 'x', 'y')	half	Length = 2	(2, 7)	7	7	5	4	0	ADD	0	BUxy	NA	NA	NA	NA	0	14	14	0				NA	NA	space	2.29881981815	7	1	2.3994882134	2015_Jul_07_1549	287.31282802	KRITL	1	31005	NA	0.832395868699202	0.435005819988432	0.87525547019741	0.416755537458144	Chunks = 2	2nd
220				NA	NA		NA	NA	('ADD', 'HALF', 'x', 'y')	half	Length = 2	(2, 7)	7	7	5	4	0	ADD	0	BUxy	NA	NA	NA	NA	0	14	14	0			NA	NA	NA	space	0.862001700123	7	1	1.85349233806	2015_Jul_22_1134	281.773905697	KRITL	1	31028	NA	-0.148498036019925	1.16009051937752	0.61707160983156	0.539522057612967	Chunks = 2	2nd
221				NA	NA		NA	NA	('ADD', 'HALF', 'x', 'y')	half	Length = 2	(2, 7)	7	7	5	4	0	ADD	0	BUxy	NA	NA	NA	NA	0	15	15	0			NA	NA	NA	space	0.938747641689	7	1	3.0145318836	2015_Jul_08_1558	None	KRITL	1	31013	NA	-0.0632085880891052	1.06524901431528	1.10344455563712	0.331726463216499	Chunks = 2	2nd
222				NA	NA		NA	NA	('ADD', 'HALF', 'x', 'y')	half	Length = 2	(2, 7)	7	7	5	4	0	ADD	0	BUxy	NA	NA	NA	NA	0	16	16	0				NA	NA	space	1.3839390112	7	1	1.55951071269	2015_Jul_08_1551	357.897102275	KRITL	1	31012	NA	0.324933789172474	0.722575194359837	0.444372126352804	0.64122675904874	Chunks = 2	2nd
223				NA	NA		NA	NA	('ADD', 'HALF', 'x', 'y')	half	Length = 2	(2, 7)	7	7	5	4	0	ADD	0	BUxy	NA	NA	NA	NA	0	16	16	0			NA	NA	NA	space	1.65488491715	7	1	1.60575155875	2015_Jul_07_1404	360.230878236	KRITL	1	31002	NA	0.503731469945997	0.604271626163694	0.473591907885482	0.622761344711664	Chunks = 2	2nd
224				NA	NA		NA	NA	('ADD', 'HALF', 'x', 'y')	half	Length = 2	(2, 7)	7	7	5	4	0	ADD	0	BUxy	NA	NA	NA	NA	0	17	17	0			NA	NA	NA	space	1.03336284152	7	1	1.68318919721	2015_Jul_08_1336	60.0051538288	KRITL	1	31008	NA	0.0328183787249447	0.967714301134608	0.520690325533291	0.594110276882461	Chunks = 2	2nd
225				NA	NA		NA	NA	('ADD', 'THIRD', 'INCREASE', 'HALF', 'x', 'y')	third	Length = 4	(2, 3, 1, 7)	7	7	6	4	increase	ADD	half	BUUUxy	NA	NA	NA	NA	0	0	0	10			NA	NA	NA	space	4.33763041825	7	1	2.62729414186	2015_Jul_13_1550	287.784491609	KRITL	1	31019	NA	1.46732821242903	0.230540618627312	0.965954473167767	0.380619734984088	Chunks = 2	4th
226				NA	NA		NA	NA	('ADD', 'THIRD', 'INCREASE', 'HALF', 'x', 'y')	third	Length = 4	(2, 3, 1, 7)	7	7	6	4	increase	ADD	half	BUUUxy	NA	NA	NA	NA	0	0	0	10			NA	NA	NA	space	4.64561822974	7	1	7.35377318376	2015_Jul_08_1337	None	KRITL	1	31009	NA	1.53592445915531	0.215256603221993	1.99521353983613	0.135984612934268	Chunks = 2	4th
227				NA	NA		NA	NA	('ADD', 'THIRD', 'INCREASE', 'HALF', 'x', 'y')	third	Length = 4	(2, 3, 1, 7)	7	7	6	4	increase	ADD	half	BUUUxy	NA	NA	NA	NA	0	1	1	10				NA	NA	space	7.6841296666	7	1	2.70620318598	2015_Jul_09_1534	None	KRITL	1	31015	NA	2.0391571196468	0.130138355726429	0.995546614135902	0.369521403707116	Chunks = 2	4th
229				NA	NA		NA	NA	('ADD', 'THIRD', 'INCREASE', 'HALF', 'x', 'y')	third	Length = 4	(2, 3, 1, 7)	7	7	6	4	increase	ADD	half	BUUUxy	NA	NA	NA	NA	0	1	1	10			NA	NA	NA	space	4.74274536481	7	1	3.0758366574	2015_Jul_08_1336	357.524927026	KRITL	1	31010	NA	1.55661615892887	0.210848342696142	1.12357694795774	0.325114793594176	Chunks = 2	4th
231				NA	NA		NA	NA	('ADD', 'THIRD', 'INCREASE', 'HALF', 'x', 'y')	third	Length = 4	(2, 3, 1, 7)	7	7	6	4	increase	ADD	half	BUUUxy	NA	NA	NA	NA	0	3	3	10			NA	NA	NA	space	7.89134613803	7	1	5.00337819749	2015_Jul_17_1555	None	KRITL	1	31020	NA	2.06576673349005	0.126721092004924	1.61011332379049	0.199864963336504	Chunks = 2	4th
233				NA	NA		NA	NA	('ADD', 'THIRD', 'INCREASE', 'HALF', 'x', 'y')	third	Length = 4	(2, 3, 1, 7)	7	7	6	4	increase	ADD	half	BUUUxy	NA	NA	NA	NA	0	4	4	10				NA	NA	space	7.8931867807	7	1	6.4389492339	2015_Jul_16_1335	360.287380426	KRITL	1	31025	NA	2.06599995454104	0.126691541424707	1.86236536436594	0.155304843022393	Chunks = 2	4th
234				NA	NA		NA	NA	('ADD', 'THIRD', 'INCREASE', 'HALF', 'x', 'y')	third	Length = 4	(2, 3, 1, 7)	7	7	6	4	increase	ADD	half	BUUUxy	NA	NA	NA	NA	0	8	8	10			NA	NA	NA	space	9.58612443792	7	1	5.54924038676	2015_Jul_21_1534	None	KRITL	1	31027	NA	2.26031668186746	0.10431744408035	1.71366105114072	0.18020484432174	Chunks = 2	4th
235				NA	NA		NA	NA	('ADD', 'THIRD', 'INCREASE', 'HALF', 'x', 'y')	third	Length = 4	(2, 3, 1, 7)	7	7	6	4	increase	ADD	half	BUUUxy	NA	NA	NA	NA	0	9	9	10				NA	NA	space	3.07878186664	7	1	5.17328623007	2015_Jul_09_1535	360.822427182	KRITL	1	31017	NA	1.12453402091143	0.32480378387162	1.64350812103327	0.19330072907767	Chunks = 2	4th
236				NA	NA		NA	NA	('ADD', 'THIRD', 'INCREASE', 'HALF', 'x', 'y')	third	Length = 4	(2, 3, 1, 7)	7	7	6	4	increase	ADD	half	BUUUxy	NA	NA	NA	NA	0	9	9	10			NA	NA	NA	space	1.41664439581	7	1	3.19985812802	2015_Jul_07_1404	60.0082342211	KRITL	1	31004	NA	0.34829097353994	0.705893450013069	1.16310647382911	0.312513855299822	Chunks = 2	4th
239				NA	NA		NA	NA	('ADD', 'THIRD', 'INCREASE', 'HALF', 'x', 'y')	third	Length = 4	(2, 3, 1, 7)	7	7	6	4	increase	ADD	half	BUUUxy	NA	NA	NA	NA	0	11	11	10				NA	NA	space	6.82277386384	7	1	3.46165166088	2015_Jul_08_1553	None	KRITL	1	31011	NA	1.92026611406844	0.146567953145845	1.24174583380608	0.288879441944134	Chunks = 2	4th
240				NA	NA		NA	NA	('ADD', 'THIRD', 'INCREASE', 'HALF', 'x', 'y')	third	Length = 4	(2, 3, 1, 7)	7	7	6	4	increase	ADD	half	BUUUxy	NA	NA	NA	NA	0	12	12	10				NA	NA	space	5.42784225466	7	1	6.05049063131	2015_Jul_09_1334	None	KRITL	1	31014	NA	1.69154168013913	0.184235273075864	1.80013936483894	0.165275852973842	Chunks = 2	4th
242				NA	NA		NA	NA	('ADD', 'THIRD', 'INCREASE', 'HALF', 'x', 'y')	third	Length = 4	(2, 3, 1, 7)	7	7	6	4	increase	ADD	half	BUUUxy	NA	NA	NA	NA	0	12	12	10			NA	NA	NA	space	5.47019588505	7	1	5.30844556371	2015_Jul_14_1533	283.057880698	KRITL	1	31021	NA	1.69931442658795	0.182808809961082	1.66929905486678	0.188379062759215	Chunks = 2	4th
243				NA	NA		NA	NA	('ADD', 'THIRD', 'INCREASE', 'HALF', 'x', 'y')	third	Length = 4	(2, 3, 1, 7)	7	7	6	4	increase	ADD	half	BUUUxy	NA	NA	NA	NA	0	12	12	10			NA	NA	NA	space	6.78694682778	7	1	4.86874525582	2015_Jul_07_1404	None	KRITL	1	31003	NA	1.91500118326924	0.147341658241206	1.58283625622207	0.205391727736139	Chunks = 2	4th
245				NA	NA		NA	NA	('ADD', 'THIRD', 'INCREASE', 'HALF', 'x', 'y')	third	Length = 4	(2, 3, 1, 7)	7	7	6	4	increase	ADD	half	BUUUxy	NA	NA	NA	NA	0	13	13	10			NA	NA	NA	space	1.7952409166	7	1	5.47321956953	2015_Jul_22_1134	281.773905697	KRITL	1	31028	NA	0.585139228310209	0.557028302303791	1.69986703003602	0.182707817089434	Chunks = 2	4th
247				NA	NA		NA	NA	('ADD', 'THIRD', 'INCREASE', 'HALF', 'x', 'y')	third	Length = 4	(2, 3, 1, 7)	7	7	6	4	increase	ADD	half	BUUUxy	NA	NA	NA	NA	0	15	15	10				NA	NA	space	6.72698919421	7	1	5.84650515442	2015_Jul_07_1543	None	KRITL	1	31007	NA	1.90612767271098	0.148654913978561	1.76584407322275	0.171042353267061	Chunks = 2	4th
249				NA	NA		NA	NA	('ADD', 'THIRD', 'INCREASE', 'HALF', 'x', 'y')	third	Length = 4	(2, 3, 1, 7)	7	7	6	4	increase	ADD	half	BUUUxy	NA	NA	NA	NA	0	15	15	10			NA	NA	NA	space	2.51650057331	7	1	4.14978546396	2015_Jul_08_1336	60.0051538288	KRITL	1	31008	NA	0.922869275054637	0.397377219224982	1.42305663747503	0.240976312796116	Chunks = 2	4th
250				NA	NA		NA	NA	('ADD', 'THIRD', 'INCREASE', 'HALF', 'x', 'y')	third	Length = 4	(2, 3, 1, 7)	7	7	6	4	increase	ADD	half	BUUUxy	NA	NA	NA	NA	0	15	15	10			NA	NA	NA	space	2.77072597474	7	1	5.07011518348	2015_Jul_10_1353	None	KRITL	1	31018	NA	1.01910937060472	0.360916239684741	1.62336353598014	0.197234177885802	Chunks = 2	4th
251				NA	NA		NA	NA	('ADD', 'THIRD', 'INCREASE', 'HALF', 'x', 'y')	third	Length = 4	(2, 3, 1, 7)	7	7	6	4	increase	ADD	half	BUUUxy	NA	NA	NA	NA	0	16	16	10			NA	NA	NA	space	1.79994374396	7	1	5.58298124833	2015_Jul_07_1543	60.0017041557	KRITL	1	31006	NA	0.587755411058167	0.555572919073532	1.719722907614	0.179115772652671	Chunks = 2	4th
252				NA	NA		NA	NA	('ADD', 'THIRD', 'INCREASE', 'HALF', 'x', 'y')	third	Length = 4	(2, 3, 1, 7)	7	7	6	4	increase	ADD	half	BUUUxy	NA	NA	NA	NA	0	17	17	10				NA	NA	space	3.84448462802	7	1	6.99933541936	2015_Jul_16_1551	None	KRITL	1	31026	NA	1.34663955704798	0.260112888138929	1.94581520445679	0.142870707015129	Chunks = 2	4th
253				NA	NA		NA	NA	('ADD', 'THIRD', 'x', 'y')	third	Length = 2	(1, 7)	7	7	6	3	0	ADD	0	BUxy	NA	NA	NA	NA	0	0	0	0			NA	NA	NA	space	1.54412698172	7	1	3.09287007511	2015_Jul_07_1404	360.230878236	KRITL	1	31002	NA	0.434458690267525	0.647615132588449	1.12909948671331	0.323324283178767	Chunks = 2	2nd
255				NA	NA		NA	NA	('ADD', 'THIRD', 'x', 'y')	third	Length = 2	(1, 7)	7	7	6	3	0	ADD	0	BUxy	NA	NA	NA	NA	0	2	2	0			NA	NA	NA	space	0.466739986572	7	1	1.3499108424	2015_Jul_07_1404	60.0082342211	KRITL	1	31004	NA	-0.761982950305164	2.14252052271021	0.300038547602758	0.740789664465621	Chunks = 2	2nd
256				NA	NA		NA	NA	('ADD', 'THIRD', 'x', 'y')	third	Length = 2	(1, 7)	7	7	6	3	0	ADD	0	BUxy	NA	NA	NA	NA	0	3	3	0			NA	NA	NA	space	1.04365514458	7	1	2.18203035514	2015_Jul_21_1534	None	KRITL	1	31027	NA	0.0427291136088299	0.95817091037522	0.780255798927312	0.458288766535441	Chunks = 2	2nd
257				NA	NA		NA	NA	('ADD', 'THIRD', 'x', 'y')	third	Length = 2	(1, 7)	7	7	6	3	0	ADD	0	BUxy	NA	NA	NA	NA	0	3	3	0			NA	NA	NA	space	1.25165838946	7	1	1.50964621842	2015_Jul_09_1535	None	KRITL	1	31016	NA	0.224469383578053	0.79894003701076	0.411875330938986	0.662406852544964	Chunks = 2	2nd
258				NA	NA		NA	NA	('ADD', 'THIRD', 'x', 'y')	third	Length = 2	(1, 7)	7	7	6	3	0	ADD	0	BUxy	NA	NA	NA	NA	0	3	3	0			NA	NA	NA	space	3.36648413111	7	1	2.58325636909	2015_Jul_07_1543	60.0017041557	KRITL	1	31006	NA	1.21386891522705	0.297045808343163	0.949050761643015	0.387108307160496	Chunks = 2	2nd
260				NA	NA		NA	NA	('ADD', 'THIRD', 'x', 'y')	third	Length = 2	(1, 7)	7	7	6	3	0	ADD	0	BUxy	NA	NA	NA	NA	0	4	4	0				NA	NA	space	2.00093299938	7	1	1.68596451873	2015_Jul_07_1543	None	KRITL	1	31007	NA	0.693613571472793	0.499766858915244	0.522337814714094	0.593132292459676	Chunks = 2	2nd
261				NA	NA		NA	NA	('ADD', 'THIRD', 'x', 'y')	third	Length = 2	(1, 7)	7	7	6	3	0	ADD	0	BUxy	NA	NA	NA	NA	0	4	4	0				NA	NA	space	3.67554710666	7	1	2.91849700484	2015_Jul_07_1549	287.31282802	KRITL	1	31005	NA	1.30170199414492	0.272068340026992	1.07106875939426	0.342642119673795	Chunks = 2	2nd
263				NA	NA		NA	NA	('ADD', 'THIRD', 'x', 'y')	third	Length = 2	(1, 7)	7	7	6	3	0	ADD	0	BUxy	NA	NA	NA	NA	0	4	4	0			NA	NA	NA	space	1.33334679279	7	1	1.60006440018	2015_Jul_08_1336	60.0051538288	KRITL	1	31008	NA	0.287692166993331	0.74999242913205	0.470043878548221	0.624974844692191	Chunks = 2	2nd
264				NA	NA		NA	NA	('ADD', 'THIRD', 'x', 'y')	third	Length = 2	(1, 7)	7	7	6	3	0	ADD	0	BUxy	NA	NA	NA	NA	0	5	5	0				NA	NA	space	1.17432921811	7	1	3.44350053876	2015_Jul_09_1535	360.822427182	KRITL	1	31017	NA	0.160697106378862	0.85154996109986	1.2364885524597	0.290402161621296	Chunks = 2	2nd
265				NA	NA		NA	NA	('ADD', 'THIRD', 'x', 'y')	third	Length = 2	(1, 7)	7	7	6	3	0	ADD	0	BUxy	NA	NA	NA	NA	0	5	5	0				NA	NA	space	1.30818551219	7	1	2.32356460356	2015_Jul_08_1553	None	KRITL	1	31011	NA	0.268641071869678	0.764417577386196	0.843102473572112	0.430373228473128	Chunks = 2	2nd
266				NA	NA		NA	NA	('ADD', 'THIRD', 'x', 'y')	third	Length = 2	(1, 7)	7	7	6	3	0	ADD	0	BUxy	NA	NA	NA	NA	0	5	5	0			NA	NA	NA	space	1.14839956451	7	1	1.87752048073	2015_Jul_22_1134	281.773905697	KRITL	1	31028	NA	0.138369290050141	0.870777063057039	0.629952013107974	0.532617359045367	Chunks = 2	2nd
268				NA	NA		NA	NA	('ADD', 'THIRD', 'x', 'y')	third	Length = 2	(1, 7)	7	7	6	3	0	ADD	0	BUxy	NA	NA	NA	NA	0	7	7	0				NA	NA	space	0.805242172966	7	1	2.50020315379	2015_Jul_16_1551	None	KRITL	1	31026	NA	-0.216612210823036	1.24186242794095	0.916371990088617	0.399967498034759	Chunks = 2	2nd
269				NA	NA		NA	NA	('ADD', 'THIRD', 'x', 'y')	third	Length = 2	(1, 7)	7	7	6	3	0	ADD	0	BUxy	NA	NA	NA	NA	0	7	7	0				NA	NA	space	1.66848961444	7	1	2.502005733	2015_Jul_08_1551	357.897102275	KRITL	1	31012	NA	0.511918794700857	0.599344455815287	0.917092703409001	0.399679339983351	Chunks = 2	2nd
270				NA	NA		NA	NA	('ADD', 'THIRD', 'x', 'y')	third	Length = 2	(1, 7)	7	7	6	3	0	ADD	0	BUxy	NA	NA	NA	NA	0	8	8	0			NA	NA	NA	space	0.573911062384	7	1	1.82717298449	2015_Jul_13_1550	287.784491609	KRITL	1	31019	NA	-0.555280838249449	1.74243025713086	0.602769955174324	0.547293555940528	Chunks = 2	2nd
271				NA	NA		NA	NA	('ADD', 'THIRD', 'x', 'y')	third	Length = 2	(1, 7)	7	7	6	3	0	ADD	0	BUxy	NA	NA	NA	NA	0	8	8	0			NA	NA	NA	space	0.756244326098	7	1	2.21325546055	2015_Jul_08_1336	357.524927026	KRITL	1	31010	NA	-0.279390772345562	1.32232397056082	0.794464490714834	0.451823125628479	Chunks = 2	2nd
272				NA	NA		NA	NA	('ADD', 'THIRD', 'x', 'y')	third	Length = 2	(1, 7)	7	7	6	3	0	ADD	0	BUxy	NA	NA	NA	NA	0	8	8	0			NA	NA	NA	space	2.62941947009	7	1	2.04157356182	2015_Jul_17_1555	None	KRITL	1	31020	NA	0.966763088018297	0.380312084616066	0.713720864348984	0.489818255242555	Chunks = 2	2nd
273				NA	NA		NA	NA	('ADD', 'THIRD', 'x', 'y')	third	Length = 2	(1, 7)	7	7	6	3	0	ADD	0	BUxy	NA	NA	NA	NA	0	10	10	0			NA	NA	NA	space	1.0868479874	7	1	2.71748113085	2015_Jul_08_1558	None	KRITL	1	31013	NA	0.0832817523615491	0.920091872638269	0.999705396419663	0.367987835737873	Chunks = 2	2nd
274				NA	NA		NA	NA	('ADD', 'THIRD', 'x', 'y')	third	Length = 2	(1, 7)	7	7	6	3	0	ADD	0	BUxy	NA	NA	NA	NA	0	10	10	0			NA	NA	NA	space	3.20671009484	7	1	1.84514947271	2015_Jul_14_1534	340.004537469	KRITL	1	31022	NA	1.1652455190072	0.311846088490857	0.612560289229921	0.541961513031941	Chunks = 2	2nd
275				NA	NA		NA	NA	('ADD', 'THIRD', 'x', 'y')	third	Length = 2	(1, 7)	7	7	6	3	0	ADD	0	BUxy	NA	NA	NA	NA	0	11	11	0				NA	NA	space	1.1438134897	7	1	1.20260259931	2015_Jul_09_1534	None	KRITL	1	31015	NA	0.134367846187183	0.874268409146215	0.18448804102961	0.831529884081205	Chunks = 2	2nd
276				NA	NA		NA	NA	('ADD', 'THIRD', 'x', 'y')	third	Length = 2	(1, 7)	7	7	6	3	0	ADD	0	BUxy	NA	NA	NA	NA	0	11	11	0			NA	NA	NA	space	0.709294752561	7	1	2.24328011224	2015_Jul_07_1404	None	KRITL	1	31003	NA	-0.343484108854472	1.40985111815556	0.807939130594178	0.445775805947596	Chunks = 2	2nd
277				NA	NA		NA	NA	('ADD', 'THIRD', 'x', 'y')	third	Length = 2	(1, 7)	7	7	6	3	0	ADD	0	BUxy	NA	NA	NA	NA	0	15	15	0				NA	NA	space	0.835731905987	7	1	2.31033003086	2015_Jul_16_1335	360.287380426	KRITL	1	31025	NA	-0.179447403946806	1.19655596829105	0.837390384830848	0.43283859303329	Chunks = 2	2nd
278				NA	NA		NA	NA	('ADD', 'THIRD', 'x', 'y')	third	Length = 2	(1, 7)	7	7	6	3	0	ADD	0	BUxy	NA	NA	NA	NA	0	15	15	0			NA	NA	NA	space	1.5310751823	7	1	1.91977297169	2015_Jul_10_1353	None	KRITL	1	31018	NA	0.425970222132166	0.65313579082236	0.652206935136869	0.520894925986841	Chunks = 2	2nd
279				NA	NA		NA	NA	('ADD', 'THIRD', 'x', 'y')	third	Length = 2	(1, 7)	7	7	6	3	0	ADD	0	BUxy	NA	NA	NA	NA	0	16	16	0				NA	NA	space	1.6787503224	7	1	3.34851953198	2015_Jul_09_1334	None	KRITL	1	31014	NA	0.518049660902946	0.595681196099707	1.20851831740456	0.298639440639217	Chunks = 2	2nd
280				NA	NA		NA	NA	('ADD', 'THIRD', 'x', 'y')	third	Length = 2	(1, 7)	7	7	6	3	0	ADD	0	BUxy	NA	NA	NA	NA	0	17	17	0			NA	NA	NA	space	1.21004703158	7	1	1.67827437207	2015_Jul_14_1533	283.057880698	KRITL	1	31021	NA	0.190659227927647	0.826414159038319	0.517766106043208	0.595850128347363	Chunks = 2	2nd
282				NA	NA		NA	NA	('ADD', 'TRIPLE', 'DOUBLE', 'DECREASE', 'x', 'y')	triple	Length = 4	(1, 2, 6, 8)	8	8	2	2	double	ADD	decrease	BUUUxy	NA	NA	NA	NA	0	1	1	11				NA	NA	space	16.5332595574	8	1	4.59686117023	2015_Jul_16_1335	360.287380426	KRITL	1	31025	NA	2.80537408279878	0.0604841408633434	1.52537371628757	0.21753974352677	Chunks = 2	4th
283				NA	NA		NA	NA	('ADD', 'TRIPLE', 'DOUBLE', 'DECREASE', 'x', 'y')	triple	Length = 4	(1, 2, 6, 8)	8	8	2	2	double	ADD	decrease	BUUUxy	NA	NA	NA	NA	0	1	1	11			NA	NA	NA	space	2.39137098516	8	1	4.9336939535	2015_Jul_08_1336	357.524927026	KRITL	1	31010	NA	0.871866835436511	0.418170165233937	1.59608798811281	0.202687886485256	Chunks = 2	4th
284				NA	NA		NA	NA	('ADD', 'TRIPLE', 'DOUBLE', 'DECREASE', 'x', 'y')	triple	Length = 4	(1, 2, 6, 8)	8	8	2	2	double	ADD	decrease	BUUUxy	NA	NA	NA	NA	0	1	1	11			NA	NA	NA	space	3.73314928071	8	1	3.21649232655	2015_Jul_08_1336	60.0051538288	KRITL	1	31008	NA	1.31725218860784	0.267870348814396	1.16829142621397	0.310897679358868	Chunks = 2	4th
285				NA	NA		NA	NA	('ADD', 'TRIPLE', 'DOUBLE', 'DECREASE', 'x', 'y')	triple	Length = 4	(1, 2, 6, 8)	8	8	2	2	double	ADD	decrease	BUUUxy	NA	NA	NA	NA	0	2	2	11				NA	NA	space	5.76523119814	8	1	4.12571808131	2015_Jul_09_1334	None	KRITL	1	31014	NA	1.75184525667057	0.173453581587955	1.417240084954	0.242382048480268	Chunks = 2	4th
286				NA	NA		NA	NA	('ADD', 'TRIPLE', 'DOUBLE', 'DECREASE', 'x', 'y')	triple	Length = 4	(1, 2, 6, 8)	8	8	2	2	double	ADD	decrease	BUUUxy	NA	NA	NA	NA	0	3	3	11			NA	NA	NA	space	2.06718143962	8	1	3.81611028888	2015_Jul_22_1134	281.773905697	KRITL	1	31028	NA	0.726186056053842	0.483750473390389	1.33923165486651	0.262046933736156	Chunks = 2	4th
287				NA	NA		NA	NA	('ADD', 'TRIPLE', 'DOUBLE', 'DECREASE', 'x', 'y')	triple	Length = 4	(1, 2, 6, 8)	8	8	2	2	double	ADD	decrease	BUUUxy	NA	NA	NA	NA	0	3	3	11			NA	NA	NA	space	2.11867856589	8	1	6.82943339861	2015_Jul_08_1558	None	KRITL	1	31013	NA	0.750792576364093	0.471992314501906	1.92124171239774	0.146425031424061	Chunks = 2	4th
288				NA	NA		NA	NA	('ADD', 'TRIPLE', 'DOUBLE', 'DECREASE', 'x', 'y')	triple	Length = 4	(1, 2, 6, 8)	8	8	2	2	double	ADD	decrease	BUUUxy	NA	NA	NA	NA	0	6	6	11				NA	NA	space	5.7427808911	8	1	3.90337857063	2015_Jul_09_1534	None	KRITL	1	31015	NA	1.74794356881236	0.174131665296472	1.36184247827573	0.256188320426886	Chunks = 2	4th
289				NA	NA		NA	NA	('ADD', 'TRIPLE', 'DOUBLE', 'DECREASE', 'x', 'y')	triple	Length = 4	(1, 2, 6, 8)	8	8	2	2	double	ADD	decrease	BUUUxy	NA	NA	NA	NA	0	6	6	11			NA	NA	NA	space	2.10177252383	8	1	8.14876370583	2015_Jul_07_1404	None	KRITL	1	31003	NA	0.742781047678593	0.475788882318115	2.0978662232101	0.122718001908014	Chunks = 2	4th
290				NA	NA		NA	NA	('ADD', 'TRIPLE', 'DOUBLE', 'DECREASE', 'x', 'y')	triple	Length = 4	(1, 2, 6, 8)	8	8	2	2	double	ADD	decrease	BUUUxy	NA	NA	NA	NA	0	7	7	11				NA	NA	space	4.09314313054	8	1	4.43148292476	2015_Jul_16_1551	None	KRITL	1	31026	NA	1.40931316649083	0.244311026540641	1.48873427403759	0.225658096167472	Chunks = 2	4th
291				NA	NA		NA	NA	('ADD', 'TRIPLE', 'DOUBLE', 'DECREASE', 'x', 'y')	triple	Length = 4	(1, 2, 6, 8)	8	8	2	2	double	ADD	decrease	BUUUxy	NA	NA	NA	NA	0	7	7	11				NA	NA	space	6.01920837838	8	1	6.45398258798	2015_Jul_08_1553	None	KRITL	1	31011	NA	1.79495575206606	0.166134803306002	1.86469739576124	0.154943089227172	Chunks = 2	4th
292				NA	NA		NA	NA	('ADD', 'TRIPLE', 'DOUBLE', 'DECREASE', 'x', 'y')	triple	Length = 4	(1, 2, 6, 8)	8	8	2	2	double	ADD	decrease	BUUUxy	NA	NA	NA	NA	0	7	7	11			NA	NA	NA	space	2.99985833334	8	1	9.54930667172	2015_Jul_07_1543	60.0017041557	KRITL	1	31006	NA	1.09856506533311	0.333349074816681	2.25646855203725	0.104719644512148	Chunks = 2	4th
293				NA	NA		NA	NA	('ADD', 'TRIPLE', 'DOUBLE', 'DECREASE', 'x', 'y')	triple	Length = 4	(1, 2, 6, 8)	8	8	2	2	double	ADD	decrease	BUUUxy	NA	NA	NA	NA	0	8	8	11			NA	NA	NA	space	6.95943678278	8	1	4.42064910528	2015_Jul_17_1555	None	KRITL	1	31020	NA	1.9400985490576	0.143689788586677	1.48628654170545	0.226211123340598	Chunks = 2	4th
294				NA	NA		NA	NA	('ADD', 'TRIPLE', 'DOUBLE', 'DECREASE', 'x', 'y')	triple	Length = 4	(1, 2, 6, 8)	8	8	2	2	double	ADD	decrease	BUUUxy	NA	NA	NA	NA	0	9	9	11				NA	NA	space	7.16233091077	8	1	5.40588239617	2015_Jul_16_1335	None	KRITL	1	31024	NA	1.96883547419082	0.139619351920239	1.68748769330205	0.184983676431527	Chunks = 2	4th
295				NA	NA		NA	NA	('ADD', 'TRIPLE', 'DOUBLE', 'DECREASE', 'x', 'y')	triple	Length = 4	(1, 2, 6, 8)	8	8	2	2	double	ADD	decrease	BUUUxy	NA	NA	NA	NA	0	9	9	11			NA	NA	NA	space	1.88329404422	8	1	3.53318096753	2015_Jul_07_1404	60.0082342211	KRITL	1	31004	NA	0.63302239479653	0.530984528448487	1.26219858912294	0.283031072902865	Chunks = 2	4th
296				NA	NA		NA	NA	('ADD', 'TRIPLE', 'DOUBLE', 'DECREASE', 'x', 'y')	triple	Length = 4	(1, 2, 6, 8)	8	8	2	2	double	ADD	decrease	BUUUxy	NA	NA	NA	NA	0	9	9	11			NA	NA	NA	space	2.9735305121	8	1	5.35351351087	2015_Jul_08_1337	None	KRITL	1	31009	NA	1.08974997145372	0.336300567937932	1.67775307635822	0.186793214954918	Chunks = 2	4th
298				NA	NA		NA	NA	('ADD', 'TRIPLE', 'DOUBLE', 'DECREASE', 'x', 'y')	triple	Length = 4	(1, 2, 6, 8)	8	8	2	2	double	ADD	decrease	BUUUxy	NA	NA	NA	NA	0	10	10	11			NA	NA	NA	space	2.253176531	8	1	2.93823564512	2015_Jul_13_1550	287.784491609	KRITL	1	31019	NA	0.812341012131167	0.443817866128839	1.0778092804986	0.3403402996832	Chunks = 2	4th
299				NA	NA		NA	NA	('ADD', 'TRIPLE', 'DOUBLE', 'DECREASE', 'x', 'y')	triple	Length = 4	(1, 2, 6, 8)	8	8	2	2	double	ADD	decrease	BUUUxy	NA	NA	NA	NA	0	10	10	11			NA	NA	NA	space	6.80567122821	8	1	2.29808139522	2015_Jul_09_1535	None	KRITL	1	31016	NA	1.91775626874238	0.146936278063937	0.832074598825399	0.435145596705145	Chunks = 2	4th
300				NA	NA		NA	NA	('ADD', 'TRIPLE', 'DOUBLE', 'DECREASE', 'x', 'y')	triple	Length = 4	(1, 2, 6, 8)	8	8	2	2	double	ADD	decrease	BUUUxy	NA	NA	NA	NA	0	12	12	11				NA	NA	space	7.18682455097	8	1	4.36263508981	2015_Jul_07_1543	None	KRITL	1	31007	NA	1.97224942619028	0.13914351086601	1.47307625319466	0.229219262994456	Chunks = 2	4th
301				NA	NA		NA	NA	('ADD', 'TRIPLE', 'DOUBLE', 'DECREASE', 'x', 'y')	triple	Length = 4	(1, 2, 6, 8)	8	8	2	2	double	ADD	decrease	BUUUxy	NA	NA	NA	NA	0	12	12	11			NA	NA	NA	space	3.71162554187	8	1	3.33718001527	2015_Jul_10_1353	None	KRITL	1	31018	NA	1.31146993210647	0.269423730578214	1.20512614355548	0.299654197683158	Chunks = 2	4th
302				NA	NA		NA	NA	('ADD', 'TRIPLE', 'DOUBLE', 'DECREASE', 'x', 'y')	triple	Length = 4	(1, 2, 6, 8)	8	8	2	2	double	ADD	decrease	BUUUxy	NA	NA	NA	NA	0	13	13	11				NA	NA	space	4.96577883797	8	1	7.26853279851	2015_Jul_09_1535	360.822427182	KRITL	1	31017	NA	1.60257015084858	0.201378279748117	1.98355445529203	0.137579347541087	Chunks = 2	4th
303				NA	NA		NA	NA	('ADD', 'TRIPLE', 'DOUBLE', 'DECREASE', 'x', 'y')	triple	Length = 4	(1, 2, 6, 8)	8	8	2	2	double	ADD	decrease	BUUUxy	NA	NA	NA	NA	0	15	15	11			NA	NA	NA	space	2.29333834015	8	1	5.62749012141	2015_Jul_21_1534	None	KRITL	1	31027	NA	0.830008546479701	0.436045559651086	1.72766353838362	0.177699112468534	Chunks = 2	4th
304				NA	NA		NA	NA	('ADD', 'TRIPLE', 'DOUBLE', 'DECREASE', 'x', 'y')	triple	Length = 4	(1, 2, 6, 8)	8	8	2	2	double	ADD	decrease	BUUUxy	NA	NA	NA	NA	0	15	15	11			NA	NA	NA	space	7.1742922618	8	1	7.19098520278	2015_Jul_14_1534	340.004537469	KRITL	1	31022	NA	1.97050411731011	0.139386571317225	1.97282818637662	0.139063003441226	Chunks = 2	4th
306				NA	NA		NA	NA	('ADD', 'TRIPLE', 'DOUBLE', 'DECREASE', 'x', 'y')	triple	Length = 4	(1, 2, 6, 8)	8	8	2	2	double	ADD	decrease	BUUUxy	NA	NA	NA	NA	0	16	16	11			NA	NA	NA	space	2.08403988043	8	1	2.45911254163	2015_Jul_14_1533	283.057880698	KRITL	1	31021	NA	0.734308260190746	0.47983726673871	0.899800529421416	0.406650766514801	Chunks = 2	4th
307				NA	NA		NA	NA	('ADD', 'TRIPLE', 'DOUBLE', 'DECREASE', 'x', 'y')	triple	Length = 4	(1, 2, 6, 8)	8	8	2	2	double	ADD	decrease	BUUUxy	NA	NA	NA	NA	0	17	17	11			NA	NA	NA	space	4.93341643932	8	1	3.55786889627	2015_Jul_07_1404	360.230878236	KRITL	1	31002	NA	1.59603173776818	0.202699288069392	1.26916174097341	0.281067130114991	Chunks = 2	4th
308				NA	NA		NA	NA	('ADD', 'TRIPLE', 'DOUBLE', 'DECREASE', 'x', 'y')	triple	Length = 4	(1, 2, 6, 8)	8	8	2	2	double	ADD	decrease	BUUUxy	NA	NA	NA	NA	0	17	17	11			NA	NA	NA	space	7.24364002616	8	1	9.03879205205	2015_Jul_15_1558	None	KRITL	1	31023	NA	1.98012384609732	0.138052139033491	2.20152554291495	0.110634252258652	Chunks = 2	4th
309				NA	NA		NA	NA	('ADD', 'TRIPLE', 'HALF', 'x', 'y')	triple	Length = 3	(2, 6, 8)	8	8	2	4	half	ADD	0	BUUxy	NA	NA	NA	NA	0	0	0	5			NA	NA	NA	space	0.966713466856	8	1	1.76665960615	2015_Jul_07_1404	60.0082342211	KRITL	1	31004	NA	-0.0338531388586352	1.03443267760845	0.569090535363112	0.566039998038589	Chunks = 2	3rd
310				NA	NA		NA	NA	('ADD', 'TRIPLE', 'HALF', 'x', 'y')	triple	Length = 3	(2, 6, 8)	8	8	2	4	half	ADD	0	BUUxy	NA	NA	NA	NA	0	0	0	5			NA	NA	NA	space	4.21406846195	8	1	9.09968289809	2015_Jul_15_1558	None	KRITL	1	31023	NA	1.43842856155995	0.237300368759853	2.20823956655192	0.109893939294291	Chunks = 2	3rd
311				NA	NA		NA	NA	('ADD', 'TRIPLE', 'HALF', 'x', 'y')	triple	Length = 3	(2, 6, 8)	8	8	2	4	half	ADD	0	BUUxy	NA	NA	NA	NA	0	1	1	5				NA	NA	space	4.67545830182	8	1	2.88572892414	2015_Jul_07_1543	None	KRITL	1	31007	NA	1.54232719041065	0.213882775857659	1.05977752806076	0.346532895600379	Chunks = 2	3rd
312				NA	NA		NA	NA	('ADD', 'TRIPLE', 'HALF', 'x', 'y')	triple	Length = 3	(2, 6, 8)	8	8	2	4	half	ADD	0	BUUxy	NA	NA	NA	NA	0	1	1	5			NA	NA	NA	space	6.78191640702	8	1	3.53463221113	2015_Jul_08_1337	None	KRITL	1	31009	NA	1.91425971791531	0.147450947488072	1.26260925182263	0.282914866460832	Chunks = 2	3rd
313				NA	NA		NA	NA	('ADD', 'TRIPLE', 'HALF', 'x', 'y')	triple	Length = 3	(2, 6, 8)	8	8	2	4	half	ADD	0	BUUxy	NA	NA	NA	NA	0	3	3	5			NA	NA	NA	space	1.92637011087	8	1	3.47772067426	2015_Jul_07_1404	360.230878236	KRITL	1	31002	NA	0.655637460475245	0.519111044319709	1.24637710053323	0.287544657453774	Chunks = 2	3rd
314				NA	NA		NA	NA	('ADD', 'TRIPLE', 'HALF', 'x', 'y')	triple	Length = 3	(2, 6, 8)	8	8	2	4	half	ADD	0	BUUxy	NA	NA	NA	NA	0	3	3	5			NA	NA	NA	space	3.33999092195	8	1	2.39103484551	2015_Jul_10_1353	None	KRITL	1	31018	NA	1.20596808900587	0.299402011373182	0.871726261983544	0.418228952989894	Chunks = 2	3rd
315				NA	NA		NA	NA	('ADD', 'TRIPLE', 'HALF', 'x', 'y')	triple	Length = 3	(2, 6, 8)	8	8	2	4	half	ADD	0	BUUxy	NA	NA	NA	NA	0	3	3	5			NA	NA	NA	space	9.41858817032	8	1	2.56604843284	2015_Jul_09_1535	None	KRITL	1	31016	NA	2.24268520159357	0.106173025289631	0.942367140855535	0.389704257800481	Chunks = 2	3rd
316				NA	NA		NA	NA	('ADD', 'TRIPLE', 'HALF', 'x', 'y')	triple	Length = 3	(2, 6, 8)	8	8	2	4	half	ADD	0	BUUxy	NA	NA	NA	NA	0	4	4	5			NA	NA	NA	space	1.59997303542	8	1	5.64964294183	2015_Jul_07_1543	60.0017041557	KRITL	1	31006	NA	0.469986776241224	0.625010533216577	1.73159234702511	0.177002336306246	Chunks = 2	3rd
317				NA	NA		NA	NA	('ADD', 'TRIPLE', 'HALF', 'x', 'y')	triple	Length = 3	(2, 6, 8)	8	8	2	4	half	ADD	0	BUUxy	NA	NA	NA	NA	0	5	5	5			NA	NA	NA	space	2.3427108723	8	1	2.64498884982	2015_Jul_08_1336	357.524927026	KRITL	1	31010	NA	0.851308751270968	0.426855917998208	0.972666849732379	0.378073427443013	Chunks = 2	3rd
318				NA	NA		NA	NA	('ADD', 'TRIPLE', 'HALF', 'x', 'y')	triple	Length = 3	(2, 6, 8)	8	8	2	4	half	ADD	0	BUUxy	NA	NA	NA	NA	0	6	6	5			NA	NA	NA	space	2.64989445149	8	1	2.31662191392	2015_Jul_08_1336	60.0051538288	KRITL	1	31008	NA	0.974519809578495	0.377373521212407	0.840110052989627	0.431663015009593	Chunks = 2	3rd
319				NA	NA		NA	NA	('ADD', 'TRIPLE', 'HALF', 'x', 'y')	triple	Length = 3	(2, 6, 8)	8	8	2	4	half	ADD	0	BUUxy	NA	NA	NA	NA	0	6	6	5			NA	NA	NA	space	3.47626600164	8	1	3.674643151	2015_Jul_17_1555	None	KRITL	1	31020	NA	1.24595872968813	0.287664982923697	1.30145602618141	0.2721352683533	Chunks = 2	3rd
321				NA	NA		NA	NA	('ADD', 'TRIPLE', 'HALF', 'x', 'y')	triple	Length = 3	(2, 6, 8)	8	8	2	4	half	ADD	0	BUUxy	NA	NA	NA	NA	0	7	7	5			NA	NA	NA	space	5.5098555181	8	1	7.25490996529	2015_Jul_14_1534	340.004537469	KRITL	1	31022	NA	1.70653840106059	0.181492962331767	1.98167847623709	0.137837685758245	Chunks = 2	3rd
324				NA	NA		NA	NA	('ADD', 'TRIPLE', 'HALF', 'x', 'y')	triple	Length = 3	(2, 6, 8)	8	8	2	4	half	ADD	0	BUUxy	NA	NA	NA	NA	0	10	10	5			NA	NA	NA	space	1.58462029487	8	1	4.87140941843	2015_Jul_21_1534	None	KRITL	1	31027	NA	0.460344817033567	0.63106600567806	1.58338330352584	0.205279399472502	Chunks = 2	3rd
327				NA	NA		NA	NA	('ADD', 'TRIPLE', 'HALF', 'x', 'y')	triple	Length = 3	(2, 6, 8)	8	8	2	4	half	ADD	0	BUUxy	NA	NA	NA	NA	0	12	12	5				NA	NA	space	1.66488371938	8	1	5.1388424118	2015_Jul_16_1551	None	KRITL	1	31026	NA	0.509755282783396	0.600642548401157	1.63682784239105	0.194596354561051	Chunks = 2	3rd
328				NA	NA		NA	NA	('ADD', 'TRIPLE', 'HALF', 'x', 'y')	triple	Length = 3	(2, 6, 8)	8	8	2	4	half	ADD	0	BUUxy	NA	NA	NA	NA	0	12	12	5				NA	NA	space	3.05993523599	8	1	3.14197513797	2015_Jul_08_1553	None	KRITL	1	31011	NA	1.11839375103116	0.326804302338923	1.14485162699818	0.318271137131305	Chunks = 2	3rd
329				NA	NA		NA	NA	('ADD', 'TRIPLE', 'HALF', 'x', 'y')	triple	Length = 3	(2, 6, 8)	8	8	2	4	half	ADD	0	BUUxy	NA	NA	NA	NA	0	12	12	5			NA	NA	NA	space	0.901260949006	8	1	2.7086119762	2015_Jul_07_1404	None	KRITL	1	31003	NA	-0.10396044176773	1.10955656195123	0.996436317775545	0.369192785377451	Chunks = 2	3rd
330				NA	NA		NA	NA	('ADD', 'TRIPLE', 'HALF', 'x', 'y')	triple	Length = 3	(2, 6, 8)	8	8	2	4	half	ADD	0	BUUxy	NA	NA	NA	NA	0	13	13	5				NA	NA	space	1.89108369662	8	1	2.80469761338	2015_Jul_09_1534	None	KRITL	1	31015	NA	0.637150049204521	0.528797324934552	1.03129573044695	0.356544675343763	Chunks = 2	3rd
331				NA	NA		NA	NA	('ADD', 'TRIPLE', 'HALF', 'x', 'y')	triple	Length = 3	(2, 6, 8)	8	8	2	4	half	ADD	0	BUUxy	NA	NA	NA	NA	0	13	13	5				NA	NA	space	2.43782137948	8	1	2.99931185824	2015_Jul_16_1335	360.287380426	KRITL	1	31025	NA	0.891104763190477	0.41020232590351	1.09838288176969	0.333409811071397	Chunks = 2	3rd
332				NA	NA		NA	NA	('ADD', 'TRIPLE', 'HALF', 'x', 'y')	triple	Length = 3	(2, 6, 8)	8	8	2	4	half	ADD	0	BUUxy	NA	NA	NA	NA	0	13	13	5				NA	NA	space	5.4961246794	8	1	4.8292335695	2015_Jul_09_1334	None	KRITL	1	31014	NA	1.70404324014309	0.181946381920355	1.57468777381034	0.207072195951693	Chunks = 2	3rd
333				NA	NA		NA	NA	('ADD', 'TRIPLE', 'HALF', 'x', 'y')	triple	Length = 3	(2, 6, 8)	8	8	2	4	half	ADD	0	BUUxy	NA	NA	NA	NA	0	13	13	5			NA	NA	NA	space	1.30585968355	8	1	3.43174364755	2015_Jul_14_1533	283.057880698	KRITL	1	31021	NA	0.266861585227647	0.765779059264227	1.23306848406611	0.291397057211404	Chunks = 2	3rd
334				NA	NA		NA	NA	('ADD', 'TRIPLE', 'HALF', 'x', 'y')	triple	Length = 3	(2, 6, 8)	8	8	2	4	half	ADD	0	BUUxy	NA	NA	NA	NA	0	15	15	5				NA	NA	space	1.38138697558	8	1	3.4794117657	2015_Jul_09_1535	360.822427182	KRITL	1	31017	NA	0.323088049207845	0.723910111849818	1.24686324665389	0.287404902707402	Chunks = 2	3rd
335				NA	NA		NA	NA	('ADD', 'TRIPLE', 'HALF', 'x', 'y')	triple	Length = 3	(2, 6, 8)	8	8	2	4	half	ADD	0	BUUxy	NA	NA	NA	NA	0	15	15	5			NA	NA	NA	space	0.925667406584	8	1	2.28895609744	2015_Jul_13_1550	287.784491609	KRITL	1	31019	NA	-0.077240281009233	1.08030162117332	0.828095860987456	0.436880375782836	Chunks = 2	3rd
336				NA	NA		NA	NA	('ADD', 'TRIPLE', 'HALF', 'x', 'y')	triple	Length = 3	(2, 6, 8)	8	8	2	4	half	ADD	0	BUUxy	NA	NA	NA	NA	0	15	15	5			NA	NA	NA	space	1.63083262261	8	1	3.0232151775	2015_Jul_22_1134	281.773905697	KRITL	1	31028	NA	0.489090695816108	0.613183711274791	1.10632089338322	0.330773676793636	Chunks = 2	3rd
337				NA	NA		NA	NA	('DECREASE', 'ADD', 'DOUBLE', 'THIRD', 'x', 'y')	ADD	Length = 4	(3, 6, 10, 9)	9	9	4	9	double	decrease 	third	UBUUxy	NA	NA	NA	NA	0	0	0	12				NA	NA	space	3.00436017975	9	1	6.21447121928	2015_Jul_08_1553	None	KRITL	1	31011	NA	1.10006462676439	0.332849572012106	1.82688063997217	0.160914736703191	Chunks = 3	3rd
338				NA	NA		NA	NA	('DECREASE', 'ADD', 'DOUBLE', 'THIRD', 'x', 'y')	ADD	Length = 4	(3, 6, 10, 9)	9	9	4	9	double	decrease 	third	UBUUxy	NA	NA	NA	NA	0	1	1	12			NA	NA	NA	space	13.5895000399	9	1	7.19160969527	2015_Jul_14_1534	340.004537469	KRITL	1	31022	NA	2.60929743866366	0.0735862244426881	1.9729150264072	0.13905092773009	Chunks = 3	3rd
340				NA	NA		NA	NA	('DECREASE', 'ADD', 'DOUBLE', 'THIRD', 'x', 'y')	ADD	Length = 4	(3, 6, 10, 9)	9	9	4	9	double	decrease 	third	UBUUxy	NA	NA	NA	NA	0	2	2	12			NA	NA	NA	space	7.10191671499	9	1	6.6199099124	2015_Jul_15_1558	None	KRITL	1	31023	NA	1.96036470747241	0.140807058169142	1.89008176145753	0.151059457490028	Chunks = 3	3rd
341				NA	NA		NA	NA	('DECREASE', 'ADD', 'DOUBLE', 'THIRD', 'x', 'y')	ADD	Length = 4	(3, 6, 10, 9)	9	9	4	9	double	decrease 	third	UBUUxy	NA	NA	NA	NA	0	3	3	12			NA	NA	NA	space	1.03335291801	9	1	3.43318278114	2015_Jul_07_1404	60.0082342211	KRITL	1	31004	NA	0.03280877555629	0.967723594302874	1.23348775545264	0.291274908371743	Chunks = 3	3rd
342				NA	NA		NA	NA	('DECREASE', 'ADD', 'DOUBLE', 'THIRD', 'x', 'y')	ADD	Length = 4	(3, 6, 10, 9)	9	9	4	9	double	decrease 	third	UBUUxy	NA	NA	NA	NA	0	3	3	12			NA	NA	NA	space	9.32440284856	9	1	5.00136695736	2015_Jul_21_1534	None	KRITL	1	31027	NA	2.23263492579144	0.107245473650297	1.60971126654146	0.199945336650094	Chunks = 3	3rd
344				NA	NA		NA	NA	('DECREASE', 'ADD', 'DOUBLE', 'THIRD', 'x', 'y')	ADD	Length = 4	(3, 6, 10, 9)	9	9	4	9	double	decrease 	third	UBUUxy	NA	NA	NA	NA	0	6	6	12				NA	NA	space	9.59528018249	9	1	7.83602251104	2015_Jul_09_1334	None	KRITL	1	31014	NA	2.26127132991816	0.104217905155584	2.05873137284999	0.127615764067947	Chunks = 3	3rd
345				NA	NA		NA	NA	('DECREASE', 'ADD', 'DOUBLE', 'THIRD', 'x', 'y')	ADD	Length = 4	(3, 6, 10, 9)	9	9	4	9	double	decrease 	third	UBUUxy	NA	NA	NA	NA	0	6	6	12			NA	NA	NA	space	2.69972363384	9	1	5.5819990684	2015_Jul_10_1353	None	KRITL	1	31018	NA	0.993149409934326	0.370408284561199	1.71954696822053	0.17914728894547	Chunks = 3	3rd
346				NA	NA		NA	NA	('DECREASE', 'ADD', 'DOUBLE', 'THIRD', 'x', 'y')	ADD	Length = 4	(3, 6, 10, 9)	9	9	4	9	double	decrease 	third	UBUUxy	NA	NA	NA	NA	0	6	6	12			NA	NA	NA	space	10.8683734853	9	1	6.4931048445	2015_Jul_09_1535	None	KRITL	1	31016	NA	2.38585705656986	0.0920100879264545	1.87074082070847	0.154009526097065	Chunks = 3	3rd
347				NA	NA		NA	NA	('DECREASE', 'ADD', 'DOUBLE', 'THIRD', 'x', 'y')	ADD	Length = 4	(3, 6, 10, 9)	9	9	4	9	double	decrease 	third	UBUUxy	NA	NA	NA	NA	0	7	7	12			NA	NA	NA	space	6.44642391567	9	1	7.99835867128	2015_Jul_08_1337	None	KRITL	1	31009	NA	1.86352554537453	0.155124765774276	2.07923635454039	0.12502565102397	Chunks = 3	3rd
348				NA	NA		NA	NA	('DECREASE', 'ADD', 'DOUBLE', 'THIRD', 'x', 'y')	ADD	Length = 4	(3, 6, 10, 9)	9	9	4	9	double	decrease 	third	UBUUxy	NA	NA	NA	NA	0	8	8	12			NA	NA	NA	space	2.45763814548	9	1	3.76954519795	2015_Jul_14_1533	283.057880698	KRITL	1	31021	NA	0.899200785286307	0.406894726076402	1.32695435703413	0.265283992494329	Chunks = 3	3rd
349				NA	NA		NA	NA	('DECREASE', 'ADD', 'DOUBLE', 'THIRD', 'x', 'y')	ADD	Length = 4	(3, 6, 10, 9)	9	9	4	9	double	decrease 	third	UBUUxy	NA	NA	NA	NA	0	8	8	12			NA	NA	NA	space	3.94072967414	9	1	4.88569084097	2015_Jul_07_1404	360.230878236	KRITL	1	31002	NA	1.37136590264532	0.253760111119074	1.58631069636986	0.204679344753927	Chunks = 3	3rd
350				NA	NA		NA	NA	('DECREASE', 'ADD', 'DOUBLE', 'THIRD', 'x', 'y')	ADD	Length = 4	(3, 6, 10, 9)	9	9	4	9	double	decrease 	third	UBUUxy	NA	NA	NA	NA	0	8	8	12			NA	NA	NA	space	4.28747365212	9	1	8.06781347367	2015_Jul_08_1558	None	KRITL	1	31013	NA	1.45569766719504	0.233237584913329	2.08788250054732	0.123949320750112	Chunks = 3	3rd
351				NA	NA		NA	NA	('DECREASE', 'ADD', 'DOUBLE', 'THIRD', 'x', 'y')	ADD	Length = 4	(3, 6, 10, 9)	9	9	4	9	double	decrease 	third	UBUUxy	NA	NA	NA	NA	0	8	8	12			NA	NA	NA	space	4.43509092544	9	1	5.01187526925	2015_Jul_07_1404	None	KRITL	1	31003	NA	1.48954811734169	0.225474520547917	1.61181015030156	0.199526114733028	Chunks = 3	3rd
352				NA	NA		NA	NA	('DECREASE', 'ADD', 'DOUBLE', 'THIRD', 'x', 'y')	ADD	Length = 4	(3, 6, 10, 9)	9	9	4	9	double	decrease 	third	UBUUxy	NA	NA	NA	NA	0	9	9	12				NA	NA	space	6.36887036733	9	1	7.17400053403	2015_Jul_09_1534	None	KRITL	1	31015	NA	1.8514221174892	0.157013715513765	1.97046345354973	0.139392239414603	Chunks = 3	3rd
353				NA	NA		NA	NA	('DECREASE', 'ADD', 'DOUBLE', 'THIRD', 'x', 'y')	ADD	Length = 4	(3, 6, 10, 9)	9	9	4	9	double	decrease 	third	UBUUxy	NA	NA	NA	NA	0	10	10	12			NA	NA	NA	space	7.18321813119	9	1	4.19183283224	2015_Jul_17_1555	None	KRITL	1	31020	NA	1.9717474903317	0.139213369514415	1.43313806841826	0.238559131535221	Chunks = 3	3rd
354				NA	NA		NA	NA	('DECREASE', 'ADD', 'DOUBLE', 'THIRD', 'x', 'y')	ADD	Length = 4	(3, 6, 10, 9)	9	9	4	9	double	decrease 	third	UBUUxy	NA	NA	NA	NA	0	12	12	12				NA	NA	space	4.66029779793	9	1	4.7179080863	2015_Jul_16_1551	None	KRITL	1	31026	NA	1.5390793512309	0.214578562006097	1.55136549929932	0.211958347154712	Chunks = 3	3rd
356				NA	NA		NA	NA	('DECREASE', 'ADD', 'DOUBLE', 'THIRD', 'x', 'y')	ADD	Length = 4	(3, 6, 10, 9)	9	9	4	9	double	decrease 	third	UBUUxy	NA	NA	NA	NA	0	14	14	12			NA	NA	NA	space	1.99994353864	9	1	5.39966492754	2015_Jul_07_1543	60.0017041557	KRITL	1	31006	NA	0.693118949481452	0.500014115738497	1.68633690118946	0.185196676723343	Chunks = 3	3rd
357				NA	NA		NA	NA	('DECREASE', 'ADD', 'DOUBLE', 'THIRD', 'x', 'y')	ADD	Length = 4	(3, 6, 10, 9)	9	9	4	9	double	decrease 	third	UBUUxy	NA	NA	NA	NA	0	14	14	12			NA	NA	NA	space	7.04510546735	9	1	3.81438303736	2015_Jul_08_1336	357.524927026	KRITL	1	31010	NA	1.95233311576378	0.141942516635758	1.33877893143811	0.262165595380824	Chunks = 3	3rd
358				NA	NA		NA	NA	('DECREASE', 'ADD', 'DOUBLE', 'THIRD', 'x', 'y')	ADD	Length = 4	(3, 6, 10, 9)	9	9	4	9	double	decrease 	third	UBUUxy	NA	NA	NA	NA	0	15	15	12				NA	NA	space	2.99867983545	9	1	7.14211068235	2015_Jul_16_1335	360.287380426	KRITL	1	31025	NA	1.09817213696556	0.333480082861175	1.96600834644086	0.140014632155066	Chunks = 3	3rd
361				NA	NA		NA	NA	('DECREASE', 'ADD', 'DOUBLE', 'THIRD', 'x', 'y')	ADD	Length = 4	(3, 6, 10, 9)	9	9	4	9	double	decrease 	third	UBUUxy	NA	NA	NA	NA	0	15	15	12			NA	NA	NA	space	4.47826079349	9	1	5.58099117357	2015_Jul_13_1550	287.784491609	KRITL	1	31019	NA	1.49923475531282	0.22330097466715	1.71936639029098	0.17917964191302	Chunks = 3	3rd
363				NA	NA		NA	NA	('DECREASE', 'ADD', 'DOUBLE', 'THIRD', 'x', 'y')	ADD	Length = 4	(3, 6, 10, 9)	9	9	4	9	double	decrease 	third	UBUUxy	NA	NA	NA	NA	0	16	16	12			NA	NA	NA	space	2.84986550221	9	1	4.39975868762	2015_Jul_08_1336	60.0051538288	KRITL	1	31008	NA	1.04727180095995	0.350893752433062	1.48154969569752	0.227285192438801	Chunks = 3	3rd
364				NA	NA		NA	NA	('DECREASE', 'ADD', 'DOUBLE', 'THIRD', 'x', 'y')	ADD	Length = 4	(3, 6, 10, 9)	9	9	4	9	double	decrease 	third	UBUUxy	NA	NA	NA	NA	0	17	17	12				NA	NA	space	5.92491384804	9	1	5.53892052742	2015_Jul_07_1543	None	KRITL	1	31007	NA	1.77916614650029	0.168778825422214	1.71179963112713	0.180540593613788	Chunks = 3	3rd
368				NA	NA		NA	NA	('DECREASE', 'ADD', 'THIRD', 'HALF', 'x', 'y')	ADD	Length = 4	(3, 1, 7, 6)	6	6	6	6	third	decrease	half	UBUUxy	NA	NA	NA	NA	0	3	3	12				NA	NA	space	6.32313100033	6	1	7.82796765369	2015_Jul_08_1553	None	KRITL	1	31011	NA	1.84421449692765	0.158149499029486	2.05770291739576	0.127747078710604	Chunks = 3	3rd
369				NA	NA		NA	NA	('DECREASE', 'ADD', 'THIRD', 'HALF', 'x', 'y')	ADD	Length = 4	(3, 1, 7, 6)	6	6	6	6	third	decrease	half	UBUUxy	NA	NA	NA	NA	0	3	3	12			NA	NA	NA	space	4.03349290502	6	1	5.62756501359	2015_Jul_21_1534	None	KRITL	1	31027	NA	1.39463272638008	0.247924075620766	1.72767684656898	0.177696747631542	Chunks = 3	3rd
370				NA	NA		NA	NA	('DECREASE', 'ADD', 'THIRD', 'HALF', 'x', 'y')	ADD	Length = 4	(3, 1, 7, 6)	6	6	6	6	third	decrease	half	UBUUxy	NA	NA	NA	NA	0	4	4	12			NA	NA	NA	space	1.90580625879	6	1	5.87828172731	2015_Jul_07_1404	None	KRITL	1	31003	NA	0.644905152001487	0.52471230765865	1.7712644959584	0.170117739569045	Chunks = 3	3rd
371				NA	NA		NA	NA	('DECREASE', 'ADD', 'THIRD', 'HALF', 'x', 'y')	ADD	Length = 4	(3, 1, 7, 6)	6	6	6	6	third	decrease	half	UBUUxy	NA	NA	NA	NA	0	5	5	12			NA	NA	NA	space	2.67766893521	6	1	5.23819074477	2015_Jul_13_1550	287.784491609	KRITL	1	31019	NA	0.98494661573222	0.373459163248489	1.65597616099523	0.190905610109452	Chunks = 3	3rd
372				NA	NA		NA	NA	('DECREASE', 'ADD', 'THIRD', 'HALF', 'x', 'y')	ADD	Length = 4	(3, 1, 7, 6)	6	6	6	6	third	decrease	half	UBUUxy	NA	NA	NA	NA	0	5	5	12			NA	NA	NA	space	3.15513351648	6	1	6.58286536318	2015_Jul_07_1404	360.230878236	KRITL	1	31002	NA	1.14903081410885	0.31694379802844	1.8844701160785	0.151909532525655	Chunks = 3	3rd
378				NA	NA		NA	NA	('DECREASE', 'ADD', 'THIRD', 'HALF', 'x', 'y')	ADD	Length = 4	(3, 1, 7, 6)	6	6	6	6	third	decrease	half	UBUUxy	NA	NA	NA	NA	0	9	9	12			NA	NA	NA	space	1.77468861121	6	1	3.42238247441	2015_Jul_14_1533	283.057880698	KRITL	1	31021	NA	0.573624977233458	0.563479133005869	1.23033693848495	0.292194109652339	Chunks = 3	3rd
380				NA	NA		NA	NA	('DECREASE', 'ADD', 'THIRD', 'HALF', 'x', 'y')	ADD	Length = 4	(3, 1, 7, 6)	6	6	6	6	third	decrease	half	UBUUxy	NA	NA	NA	NA	0	9	9	12			NA	NA	NA	space	4.43207506297	6	1	5.73842609524	2015_Jul_15_1558	None	KRITL	1	31023	NA	1.48886788589226	0.225627947584869	1.7471849732964	0.174263810913152	Chunks = 3	3rd
381				NA	NA		NA	NA	('DECREASE', 'ADD', 'THIRD', 'HALF', 'x', 'y')	ADD	Length = 4	(3, 1, 7, 6)	6	6	6	6	third	decrease	half	UBUUxy	NA	NA	NA	NA	0	9	9	12			NA	NA	NA	space	8.57483426604	6	1	3.96188372743	2015_Jul_09_1535	None	KRITL	1	31016	NA	2.14883166528971	0.116620329789979	1.37671960090731	0.252405186219001	Chunks = 3	3rd
382				NA	NA		NA	NA	('DECREASE', 'ADD', 'THIRD', 'HALF', 'x', 'y')	ADD	Length = 4	(3, 1, 7, 6)	6	6	6	6	third	decrease	half	UBUUxy	NA	NA	NA	NA	0	10	10	12				NA	NA	space	5.88216414617	6	1	4.21357256369	2015_Jul_09_1334	None	KRITL	1	31014	NA	1.77192474626571	0.170005456350809	1.43831087779552	0.237328296803855	Chunks = 3	3rd
383				NA	NA		NA	NA	('DECREASE', 'ADD', 'THIRD', 'HALF', 'x', 'y')	ADD	Length = 4	(3, 1, 7, 6)	6	6	6	6	third	decrease	half	UBUUxy	NA	NA	NA	NA	0	10	10	12			NA	NA	NA	space	1.59311460849	6	1	5.67004603069	2015_Jul_22_1134	281.773905697	KRITL	1	31028	NA	0.465690973405903	0.627701230451856	1.73519723599419	0.1763654112484	Chunks = 3	3rd
384				NA	NA		NA	NA	('DECREASE', 'ADD', 'THIRD', 'HALF', 'x', 'y')	ADD	Length = 4	(3, 1, 7, 6)	6	6	6	6	third	decrease	half	UBUUxy	NA	NA	NA	NA	0	11	11	12			NA	NA	NA	space	2.53149820369	6	1	3.83303397615	2015_Jul_08_1336	357.524927026	KRITL	1	31010	NA	0.928811302844324	0.395022994107744	1.3436566504734	0.2608899389419	Chunks = 3	3rd
385				NA	NA		NA	NA	('DECREASE', 'ADD', 'THIRD', 'HALF', 'x', 'y')	ADD	Length = 4	(3, 1, 7, 6)	6	6	6	6	third	decrease	half	UBUUxy	NA	NA	NA	NA	0	11	11	12			NA	NA	NA	space	10.3895506504	6	1	3.61360602021	2015_Jul_08_1558	None	KRITL	1	31013	NA	2.34080055589871	0.0962505534309609	1.2847061713437	0.27673188344475	Chunks = 3	3rd
386				NA	NA		NA	NA	('DECREASE', 'ADD', 'THIRD', 'HALF', 'x', 'y')	ADD	Length = 4	(3, 1, 7, 6)	6	6	6	6	third	decrease	half	UBUUxy	NA	NA	NA	NA	0	13	13	12			NA	NA	NA	space	9.36421565625	6	1	5.49394447594	2015_Jul_14_1534	340.004537469	KRITL	1	31022	NA	2.23689557971909	0.106789509843525	1.70364648131331	0.1820185850766	Chunks = 3	3rd
387				NA	NA		NA	NA	('DECREASE', 'ADD', 'THIRD', 'HALF', 'x', 'y')	ADD	Length = 4	(3, 1, 7, 6)	6	6	6	6	third	decrease	half	UBUUxy	NA	NA	NA	NA	0	14	14	12				NA	NA	space	4.30931382309	6	1	7.14093589335	2015_Jul_16_1551	None	KRITL	1	31026	NA	1.46077868566149	0.232055506062668	1.96584384526159	0.140037666621717	Chunks = 3	3rd
388				NA	NA		NA	NA	('DECREASE', 'ADD', 'THIRD', 'HALF', 'x', 'y')	ADD	Length = 4	(3, 1, 7, 6)	6	6	6	6	third	decrease	half	UBUUxy	NA	NA	NA	NA	0	14	14	12			NA	NA	NA	space	8.15171126893	6	1	5.33953946905	2015_Jul_17_1555	None	KRITL	1	31020	NA	2.09822787685966	0.122673628519139	1.67513940750213	0.187282069136558	Chunks = 3	3rd
389				NA	NA		NA	NA	('DECREASE', 'ADD', 'THIRD', 'HALF', 'x', 'y')	ADD	Length = 4	(3, 1, 7, 6)	6	6	6	6	third	decrease	half	UBUUxy	NA	NA	NA	NA	0	15	15	12			NA	NA	NA	space	4.08310015936	6	1	4.13312765434	2015_Jul_07_1404	60.0082342211	KRITL	1	31004	NA	1.40685654286194	0.244911944593773	1.41903442165799	0.241947523432998	Chunks = 3	3rd
