operationc,operationb,operationa,correctresponse,valuey,operationd,condition,valuex,Rule,Operatora,Length,Intermediate,CorrectResponse,Result,Y,X,Operatorc,Operatorb,Operatord,Structure,practice_trials.thisRepN,practice_trials.thisTrialN,practice_trials.thisN,practice_trials.thisIndex,block.thisRepN,block.thisTrialN,block.thisN,block.thisIndex,practice_encoding.keys,practice_encoding.rt,practice_execution.keys,practice_execution.corr,practice_execution.rt,encoding.keys,encoding.rt,execution.keys,execution.corr,execution.rt,date,frameRate,expName,session,participant,
0,decrease,TIMES,8,3,0,2,3,,,,,,,,,,,,,0,0,0,1,,,,,['space'],[7.161503031898064],8,1,9.69430516919,,,,,,2015_Jul_07_1404,None,KRITL,001,31003,
ADD,triple ,half,8,2,0,3,4,,,,,,,,,,,,,0,1,1,3,,,,,['space'],[5.856709703858542],8,1,6.27483830869,,,,,,2015_Jul_07_1404,None,KRITL,001,31003,
0,ADD,half,7,5,0,2,4,,,,,,,,,,,,,0,2,2,2,,,,,['space'],[3.701069589645158],7,1,2.36107285829,,,,,,2015_Jul_07_1404,None,KRITL,001,31003,
0,ADD,decrease,7,5,0,2,3,,,,,,,,,,,,,0,3,3,0,,,,,['space'],[1.7569669611129939],7,1,2.80000671928,,,,,,2015_Jul_07_1404,None,KRITL,001,31003,
increase,DIVIDE,triple,3,3,0,3,2,,,,,,,,,,,,,0,4,4,4,,,,,['space'],[3.3677308902233563],3,1,4.6669717171,,,,,,2015_Jul_07_1404,None,KRITL,001,31003,
increase,DIVIDE,double,9,8,triple,4,8,,,,,,,,,,,,,0,5,5,5,,,,,['space'],[6.597232288498162],9,1,11.1525873934,,,,,,2015_Jul_07_1404,None,KRITL,001,31003,
,,,,,,,,"('DIVIDE', 'DOUBLE', 'x', 'y')",double,2,"(12, 2)",2,2,6,6,0,DIVIDE,0,BUxy,,,,,0,0,0,1,,,,,,space,2.16497955695,2,1,2.04884913162,2015_Jul_07_1404,None,KRITL,001,31003,
,,,,,,,,"('DECREASE', 'TIMES', 'DOUBLE', 'THIRD', 'x', 'y')",TIMES,4,"(1, 2, 8, 7)",7,7,4,3,double,decrease,third,UBUUxy,,,,,0,1,1,13,,,,,,space,7.15816299212,7,1,5.38097521182,2015_Jul_07_1404,None,KRITL,001,31003,
,,,,,,,,"('ADD', 'DOUBLE', 'x', 'y')",double,2,"(4, 8)",8,8,4,2,0,ADD,0,BUxy,,,,,0,2,2,0,,,,,,space,1.5557663106,8,1,3.16192403649,2015_Jul_07_1404,None,KRITL,001,31003,
,,,,,,,,"('DECREASE', 'THIRD', 'TIMES', 'HALF', 'x', 'y')",third,4,"(2, 12, 4, 3)",3,3,6,4,TIMES,decrease,half,UUBUxy,,,,,0,3,3,14,,,,,,space,4.51217746166,3,1,5.28733266117,2015_Jul_07_1404,None,KRITL,001,31003,
,,,,,,,,"('SUBTRACT', 'HALF', 'TRIPLE', 'x', 'y')",half,3,"(12, 6, 2)",2,2,4,4,triple,SUBTRACT,0,BUUxy,,,,,0,4,4,5,,,,,,space,4.29211209571,2,1,7.11036864674,2015_Jul_07_1404,None,KRITL,001,31003,
,,,,,,,,"('DIVIDE', 'INCREASE', 'DOUBLE', 'THIRD', 'x', 'y')",increase,4,"(2, 4, 5, 1)",1,1,5,6,double,DIVIDE,third,BUUUxy,,,,,0,5,5,11,,,,,,space,4.64225563273,1,1,3.60795723181,2015_Jul_07_1404,None,KRITL,001,31003,
,,,,,,,,"('DOUBLE', 'SUBTRACT', 'x', 'y')",SUBTRACT,2,"(1, 2)",2,2,7,8,0,double,0,UBxy,,,,,0,6,6,2,,,,,,space,1.55394370717,2,1,1.41272203793,2015_Jul_07_1404,None,KRITL,001,31003,
,,,,,,,,"('DOUBLE', 'DECREASE', 'SUBTRACT', 'x', 'y')",decrease,3,"(5, 4, 8)",8,8,2,7,SUBTRACT,double,0,UUBxy,,,,,0,7,7,8,,,,,,space,5.15526075513,8,1,2.98169452425,2015_Jul_07_1404,None,KRITL,001,31003,
,,,,,,,,"('DECREASE', 'ADD', 'DOUBLE', 'THIRD', 'x', 'y')",ADD,4,"(3, 6, 10, 9)",9,9,4,9,double,decrease ,third,UBUUxy,,,,,0,8,8,12,,,,,,space,4.43509092544,9,1,5.01187526925,2015_Jul_07_1404,None,KRITL,001,31003,
,,,,,,,,"('DIVIDE', 'DOUBLE', 'THIRD', 'x', 'y')",double,3,"(2, 4, 1)",1,1,4,6,third,DIVIDE,0,BUUxy,,,,,0,9,9,4,,,,,,space,1.76643553993,1,1,3.62009987223,2015_Jul_07_1404,None,KRITL,001,31003,
,,,,,,,,"('DOUBLE', 'DECREASE', 'TRIPLE', 'DIVIDE', 'x', 'y')",decrease,4,"(1, 3, 2, 4)",4,4,4,4,triple,double,DIVIDE,UUUBxy,,,,,0,10,10,17,,,,,,space,11.6062511658,4,1,3.73359963128,2015_Jul_07_1404,None,KRITL,001,31003,
,,,,,,,,"('INCREASE', 'DIVIDE', 'THIRD', 'x', 'y')",DIVIDE,3,"(3, 1, 2)",2,2,3,9,third,increase,0,UBUxy,,,,,0,11,11,7,,,,,,space,2.13570171457,2,1,3.31491458646,2015_Jul_07_1404,None,KRITL,001,31003,
,,,,,,,,"('ADD', 'THIRD', 'INCREASE', 'HALF', 'x', 'y')",third,4,"(2, 3, 1, 7)",7,7,6,4,increase,ADD,half,BUUUxy,,,,,0,12,12,10,,,,,,space,6.78694682778,7,1,4.86874525582,2015_Jul_07_1404,None,KRITL,001,31003,
,,,,,,,,"('HALF', 'TIMES', 'x', 'y')",TIMES,2,"(16, 8)",8,8,4,4,0,half,0,UBxy,,,,,0,13,13,3,,,,,,space,1.43101701481,8,1,2.21093905022,2015_Jul_07_1404,None,KRITL,001,31003,
,,,,,,,,"('DOUBLE', 'TRIPLE', 'DIVIDE', 'DECREASE', 'x', 'y')",triple,4,"(8, 1, 3, 6)",6,6,8,9,DIVIDE,double,decrease,UUBUxy,,,,,0,14,14,15,,,,,,space,7.6528594891,6,1,8.34192362354,2015_Jul_07_1404,None,KRITL,001,31003,
,,,,,,,,"('DOUBLE', 'TRIPLE', 'SUBTRACT', 'x', 'y')",triple,3,"(1, 3, 6)",6,6,3,4,SUBTRACT,double,0,UUBxy,,,,,0,15,15,9,,,,,,space,3.09136779598,6,1,3.39823080081,2015_Jul_07_1404,None,KRITL,001,31003,
,,,,,,,,"('HALF', 'SUBTRACT', 'TRIPLE', 'x', 'y')",SUBTRACT,3,"(9, 2, 1)",1,1,7,3,triple,half,0,UBUxy,,,,,0,16,16,6,,,,,,space,1.99021400542,1,1,3.06127384162,2015_Jul_07_1404,None,KRITL,001,31003,
,,,,,,,,"('DECREASE', 'HALF', 'TRIPLE', 'DIVIDE', 'x', 'y')",half,4,"(4, 12, 6, 5)",5,5,2,8,triple,decrease,DIVIDE,UUUBxy,,,,,0,17,17,16,,,,,,space,15.6035218102,3,0,10.4534716431,2015_Jul_07_1404,None,KRITL,001,31003,
,,,,,,,,"('DIVIDE', 'THIRD', 'x', 'y')",third,2,"(3, 1)",1,1,3,9,0,DIVIDE,0,BUxy,,,,,0,0,0,0,,,,,,space,1.48576651008,1,1,1.81027216215,2015_Jul_07_1404,None,KRITL,001,31003,
,,,,,,,,"('TIMES', 'HALF', 'INCREASE', 'x', 'y')",half,3,"(6, 3, 9)",9,9,3,5,increase,TIMES,0,BUUxy,,,,,0,1,1,5,,,,,,space,2.13195256892,9,1,2.51958126316,2015_Jul_07_1404,None,KRITL,001,31003,
,,,,,,,,"('SUBTRACT', 'DOUBLE', 'TRIPLE', 'DECREASE', 'x', 'y')",double,4,"(2, 6, 12, 8)",8,8,4,3,triple,SUBTRACT,decrease,BUUUxy,,,,,0,2,2,10,,,,,,space,5.300500691,8,1,16.2124718849,2015_Jul_07_1404,None,KRITL,001,31003,
,,,,,,,,"('SUBTRACT', 'TRIPLE', 'DECREASE', 'x', 'y')",triple,3,"(4, 12, 3)",3,3,9,5,decrease,SUBTRACT,0,BUUxy,,,,,0,3,3,4,,,,,,space,2.51560079246,3,1,4.05056569649,2015_Jul_07_1404,None,KRITL,001,31003,
,,,,,,,,"('THIRD', 'TIMES', 'HALF', 'x', 'y')",TIMES,3,"(3, 18, 6)",6,6,6,6,half,third,0,UBUxy,,,,,0,4,4,7,,,,,,space,1.69693128596,6,1,6.358043585,2015_Jul_07_1404,None,KRITL,001,31003,
,,,,,,,,"('DECREASE', 'TRIPLE', 'HALF', 'SUBTRACT', 'x', 'y')",triple,4,"(4, 2, 6, 5)",5,5,2,6,half,decrease,SUBTRACT,UUUBxy,,,,,0,5,5,16,,,,,,space,8.05177026658,5,1,5.38356878211,2015_Jul_07_1404,None,KRITL,001,31003,
,,,,,,,,"('HALF', 'TRIPLE', 'INCREASE', 'SUBTRACT', 'x', 'y')",triple,4,"(1, 2, 6, 3)",3,3,2,3,increase,half,SUBTRACT,UUUBxy,,,,,0,6,6,17,,,,,,space,10.5798314652,3,1,7.7629226188,2015_Jul_07_1404,None,KRITL,001,31003,
,,,,,,,,"('THIRD', 'DECREASE', 'TIMES', 'HALF', 'x', 'y')",decrease,4,"(4, 16, 15, 5)",5,5,4,8,TIMES,third,half,UUBUxy,,,,,0,7,7,15,,,,,,space,4.38952933926,5,1,5.63954867468,2015_Jul_07_1404,None,KRITL,001,31003,
,,,,,,,,"('THIRD', 'DIVIDE', 'x', 'y')",DIVIDE,2,"(3, 1)",1,1,2,6,0,third,0,UBxy,,,,,0,8,8,3,,,,,,space,1.57029534365,1,1,1.90649078497,2015_Jul_07_1404,None,KRITL,001,31003,
,,,,,,,,"('SUBTRACT', 'TRIPLE', 'DECREASE', 'DOUBLE', 'x', 'y')",triple,4,"(4, 3, 9, 1)",1,1,8,2,decrease,SUBTRACT,double,BUUUxy,,,,,0,9,9,11,,,,,,space,5.44357121085,1,1,3.95735079972,2015_Jul_07_1404,None,KRITL,001,31003,
,,,,,,,,"('TIMES', 'DOUBLE', 'x', 'y')",double,2,"(4, 8)",8,8,2,2,0,TIMES,0,BUxy,,,,,0,10,10,1,,,,,,space,1.06401719575,8,1,1.9540083102,2015_Jul_07_1404,None,KRITL,001,31003,
,,,,,,,,"('INCREASE', 'ADD', 'HALF', 'TRIPLE', 'x', 'y')",ADD,4,"(6, 3, 6, 7)",7,7,3,2,half,increase,triple,UBUUxy,,,,,0,11,11,13,,,,,,space,4.59655126195,None,0,,2015_Jul_07_1404,None,KRITL,001,31003,
,,,,,,,,"('DOUBLE', 'THIRD', 'TIMES', 'x', 'y')",third,3,"(12, 4, 8)",8,8,6,2,TIMES,double,0,UUBxy,,,,,0,12,12,9,,,,,,space,1.79996997324,8,1,3.12687916608,2015_Jul_07_1404,None,KRITL,001,31003,
,,,,,,,,"('THIRD', 'DIVIDE', 'DECREASE', 'x', 'y')",DIVIDE,3,"(6, 3, 1)",1,1,2,7,decrease,third,0,UBUxy,,,,,0,13,13,6,,,,,,space,2.51759312758,1,1,2.80091032182,2015_Jul_07_1404,None,KRITL,001,31003,
,,,,,,,,"('DOUBLE', 'DECREASE', 'ADD', 'x', 'y')",decrease,3,"(4, 3, 6)",6,6,2,2,ADD,double,0,UUBxy,,,,,0,14,14,8,,,,,,space,1.55138198345,6,1,3.10928201393,2015_Jul_07_1404,None,KRITL,001,31003,
,,,,,,,,"('DECREASE', 'TRIPLE', 'DIVIDE', 'DOUBLE', 'x', 'y')",triple,4,"(6, 2, 6, 5)",5,5,3,3,DIVIDE,decrease,double,UUBUxy,,,,,0,15,15,14,,,,,,space,6.5358933539,5,1,4.31112344534,2015_Jul_07_1404,None,KRITL,001,31003,
,,,,,,,,"('INCREASE', 'SUBTRACT', 'x', 'y')",SUBTRACT,2,"(3, 4)",4,4,3,6,0,increase,0,UBxy,,,,,0,16,16,2,,,,,,space,1.94009136115,4,1,2.72731395919,2015_Jul_07_1404,None,KRITL,001,31003,
,,,,,,,,"('DOUBLE', 'DIVIDE', 'TRIPLE', 'INCREASE', 'x', 'y')",DIVIDE,4,"(5, 15, 3, 6)",6,6,5,4,triple,double,increase,UBUUxy,,,,,0,17,17,12,,,,,,space,4.48205131077,6,1,10.2948904461,2015_Jul_07_1404,None,KRITL,001,31003,
,,,,,,,,"('TIMES', 'THIRD', 'DOUBLE', 'x', 'y')",third,3,"(6, 2, 4)",4,4,2,3,double,TIMES,0,BUUxy,,,,,0,0,0,5,,,,,,space,2.76951345797,4,1,5.25694893806,2015_Jul_07_1404,None,KRITL,001,31003,
,,,,,,,,"('INCREASE', 'ADD', 'TRIPLE', 'x', 'y')",ADD,3,"(6, 8, 9)",9,9,2,2,triple,increase,0,UBUxy,,,,,0,1,1,6,,,,,,space,1.4125414574,9,1,7.30111837438,2015_Jul_07_1404,None,KRITL,001,31003,
,,,,,,,,"('THIRD', 'INCREASE', 'ADD', 'DOUBLE', 'x', 'y')",increase,4,"(16, 20, 21, 7)",7,7,4,8,ADD,third,double,UUBUxy,,,,,0,2,2,14,,,,,,space,1.95328003875,7,1,6.27924048391,2015_Jul_07_1404,None,KRITL,001,31003,
,,,,,,,,"('INCREASE', 'DIVIDE', 'TRIPLE', 'HALF', 'x', 'y')",DIVIDE,4,"(2, 6, 2, 3)",3,3,3,4,triple,increase,half,UBUUxy,,,,,0,3,3,12,,,,,,space,3.26980690133,3,1,3.86012743526,2015_Jul_07_1404,None,KRITL,001,31003,
,,,,,,,,"('TRIPLE', 'DECREASE', 'HALF', 'SUBTRACT', 'x', 'y')",decrease,4,"(4, 2, 1, 3)",3,3,5,9,half,triple,SUBTRACT,UUUBxy,,,,,0,4,4,17,,,,,,space,6.76121270321,3,1,4.97988801908,2015_Jul_07_1404,None,KRITL,001,31003,
,,,,,,,,"('SUBTRACT', 'INCREASE', 'x', 'y')",increase,2,"(6, 2)",2,2,4,5,0,SUBTRACT,0,BUxy,,,,,0,5,5,1,,,,,,space,1.3321232805,2,1,1.41372362991,2015_Jul_07_1404,None,KRITL,001,31003,
,,,,,,,,"('DOUBLE', 'ADD', 'x', 'y')",ADD,2,"(4, 8)",8,8,2,2,0,double,0,UBxy,,,,,0,6,6,2,,,,,,space,0.854273266628,8,1,2.83864605202,2015_Jul_07_1404,None,KRITL,001,31003,
,,,,,,,,"('TIMES', 'INCREASE', 'HALF', 'TRIPLE', 'x', 'y')",increase,4,"(6, 3, 4, 8)",8,8,2,2,half,TIMES,triple,BUUUxy,,,,,0,7,7,11,,,,,,space,2.67509084145,8,1,4.9952202155,2015_Jul_07_1404,None,KRITL,001,31003,
,,,,,,,,"('DECREASE', 'TRIPLE', 'HALF', 'ADD', 'x', 'y')",triple,4,"(6, 3, 9, 8)",8,8,2,4,half,decrease,ADD,UUUBxy,,,,,0,8,8,16,,,,,,space,3.81469743488,8,1,4.0837302197,2015_Jul_07_1404,None,KRITL,001,31003,
,,,,,,,,"('TRIPLE', 'DOUBLE', 'SUBTRACT', 'DECREASE', 'x', 'y')",double,4,"(4, 1, 2, 6)",6,6,3,5,SUBTRACT,triple,decrease,UUBUxy,,,,,0,9,9,15,,,,,,space,9.86298382719,6,1,12.9021208063,2015_Jul_07_1404,None,KRITL,001,31003,
,,,,,,,,"('DIVIDE', 'TRIPLE', 'HALF', 'x', 'y')",triple,3,"(4, 12, 4)",4,4,3,8,half,DIVIDE,0,BUUxy,,,,,0,10,10,4,,,,,,space,2.63029812235,4,1,4.32533821227,2015_Jul_07_1404,None,KRITL,001,31003,
,,,,,,,,"('ADD', 'THIRD', 'x', 'y')",third,2,"(1, 7)",7,7,6,3,0,ADD,0,BUxy,,,,,0,11,11,0,,,,,,space,0.709294752561,7,1,2.24328011224,2015_Jul_07_1404,None,KRITL,001,31003,
,,,,,,,,"('THIRD', 'INCREASE', 'SUBTRACT', 'x', 'y')",increase,3,"(2, 3, 1)",1,1,6,8,SUBTRACT,third,0,UUBxy,,,,,0,12,12,9,,,,,,space,2.10338689972,1,1,2.40782116649,2015_Jul_07_1404,None,KRITL,001,31003,
,,,,,,,,"('THIRD', 'TIMES', 'HALF', 'INCREASE', 'x', 'y')",TIMES,4,"(8, 4, 12, 4)",4,4,3,7,half,third,increase,UBUUxy,,,,,0,13,13,13,,,,,,space,3.39442041176,4,1,5.10795145743,2015_Jul_07_1404,None,KRITL,001,31003,
,,,,,,,,"('INCREASE', 'SUBTRACT', 'THIRD', 'x', 'y')",SUBTRACT,3,"(3, 1, 2)",2,2,2,9,third,increase,0,UBUxy,,,,,0,14,14,7,,,,,,space,1.38136611966,2,1,3.55579185785,2015_Jul_07_1404,None,KRITL,001,31003,
,,,,,,,,"('DECREASE', 'TRIPLE', 'DIVIDE', 'x', 'y')",triple,3,"(2, 6, 5)",5,5,4,8,DIVIDE,decrease,0,UUBxy,,,,,0,15,15,8,,,,,,space,2.82103560131,5,1,3.07753588775,2015_Jul_07_1404,None,KRITL,001,31003,
,,,,,,,,"('DOUBLE', 'TIMES', 'x', 'y')",TIMES,2,"(4, 8)",8,8,2,2,0,double,0,UBxy,,,,,0,16,16,3,,,,,,space,2.02233879076,8,1,3.58921220346,2015_Jul_07_1404,None,KRITL,001,31003,
,,,,,,,,"('DIVIDE', 'DOUBLE', 'INCREASE', 'THIRD', 'x', 'y')",double,4,"(2, 3, 6, 2)",2,2,3,6,increase,DIVIDE,third,BUUUxy,,,,,0,17,17,10,,,,,,space,4.43942765773,2,1,5.20648158096,2015_Jul_07_1404,None,KRITL,001,31003,
,,,,,,,,"('SUBTRACT', 'INCREASE', 'HALF', 'x', 'y')",increase,3,"(4, 5, 3)",3,3,2,8,half,SUBTRACT,0,BUUxy,,,,,0,0,0,5,,,,,,space,1.05547181736,3,1,3.60693884165,2015_Jul_07_1404,None,KRITL,001,31003,
,,,,,,,,"('HALF', 'SUBTRACT', 'DECREASE', 'TRIPLE', 'x', 'y')",SUBTRACT,4,"(15, 14, 10, 5)",5,5,4,5,decrease,half,triple,UBUUxy,,,,,0,1,1,12,,,,,,space,4.24284895874,5,1,6.52815463852,2015_Jul_07_1404,None,KRITL,001,31003,
,,,,,,,,"('TRIPLE', 'DOUBLE', 'SUBTRACT', 'INCREASE', 'x', 'y')",double,4,"(5, 1, 2, 6)",6,6,4,4,SUBTRACT,triple,increase,UUBUxy,,,,,0,2,2,14,,,,,,space,9.05804438991,6,1,4.94444489162,2015_Jul_07_1404,None,KRITL,001,31003,
,,,,,,,,"('ADD', 'HALF', 'x', 'y')",half,2,"(2, 7)",7,7,5,4,0,ADD,0,BUxy,,,,,0,3,3,0,,,,,,space,2.6446388757,7,1,1.3513036619,2015_Jul_07_1404,None,KRITL,001,31003,
,,,,,,,,"('INCREASE', 'DIVIDE', 'TRIPLE', 'x', 'y')",DIVIDE,3,"(6, 2, 3)",3,3,3,2,triple,increase,0,UBUxy,,,,,0,4,4,7,,,,,,space,1.68543152621,3,1,2.25111926679,2015_Jul_07_1404,None,KRITL,001,31003,
,,,,,,,,"('TIMES', 'HALF', 'INCREASE', 'THIRD', 'x', 'y')",half,4,"(1, 2, 1, 9)",9,9,9,3,increase,TIMES,third,BUUUxy,,,,,0,5,5,11,,,,,,space,1.82090191573,9,1,4.36043032759,2015_Jul_07_1404,None,KRITL,001,31003,
,,,,,,,,"('DIVIDE', 'TRIPLE', 'DECREASE', 'x', 'y')",triple,3,"(6, 18, 9)",9,9,2,7,decrease,DIVIDE,0,BUUxy,,,,,0,6,6,4,,,,,,space,2.32093778686,9,1,7.25303810984,2015_Jul_07_1404,None,KRITL,001,31003,
,,,,,,,,"('THIRD', 'INCREASE', 'HALF', 'TIMES', 'x', 'y')",increase,4,"(28, 14, 15, 5)",5,5,4,7,half,third,TIMES,UUUBxy,,,,,0,7,7,17,,,,,,space,2.96296174458,5,1,4.29278332332,2015_Jul_07_1404,None,KRITL,001,31003,
,,,,,,,,"('TRIPLE', 'INCREASE', 'DIVIDE', 'DOUBLE', 'x', 'y')",increase,4,"(16, 2, 3, 9)",9,9,8,8,DIVIDE,triple,double,UUBUxy,,,,,0,8,8,15,,,,,,space,1.9730700544,9,1,3.95607343748,2015_Jul_07_1404,None,KRITL,001,31003,
,,,,,,,,"('DOUBLE', 'DIVIDE', 'x', 'y')",DIVIDE,2,"(1, 2)",2,2,8,8,0,dpuble,0,UBxy,,,,,0,9,9,2,,,,,,space,3.23780425281,2,1,1.94307058984,2015_Jul_07_1404,None,KRITL,001,31003,
,,,,,,,,"('HALF', 'TIMES', 'DECREASE', 'x', 'y')",TIMES,3,"(8, 16, 8)",8,8,2,9,decrease,half,0,UBUxy,,,,,0,10,10,6,,,,,,space,1.44336088353,8,1,3.97432291927,2015_Jul_07_1404,None,KRITL,001,31003,
,,,,,,,,"('SUBTRACT', 'TRIPLE', 'x', 'y')",triple,2,"(12, 9)",9,9,3,4,0,SUBTRACT,0,BUxy,,,,,0,11,11,1,,,,,,space,0.916453860451,9,1,4.79138119954,2015_Jul_07_1404,None,KRITL,001,31003,
,,,,,,,,"('DECREASE', 'THIRD', 'DOUBLE', 'ADD', 'x', 'y')",third,4,"(9, 18, 6, 5)",5,5,4,5,double,decrease,ADD,UUUBxy,,,,,0,12,12,16,,,,,,space,2.08275487489,5,1,4.43624895055,2015_Jul_07_1404,None,KRITL,001,31003,
,,,,,,,,"('TRIPLE', 'INCREASE', 'SUBTRACT', 'x', 'y')",increase,3,"(1, 2, 6)",6,6,2,3,SUBTRACT,triple,0,UUBxy,,,,,0,13,13,9,,,,,,space,1.1712823772,6,1,3.52689652421,2015_Jul_07_1404,None,KRITL,001,31003,
,,,,,,,,"('INCREASE', 'TIMES', 'TRIPLE', 'HALF', 'x', 'y')",TIMES,4,"(1, 3, 6, 7)",7,7,2,2,triple,increase,half,UBUUxy,,,,,0,14,14,13,,,,,,space,1.84451631892,7,1,5.414668528,2015_Jul_07_1404,None,KRITL,001,31003,
,,,,,,,,"('TRIPLE', 'HALF', 'ADD', 'x', 'y')",half,3,"(6, 3, 9)",9,9,3,3,ADD,triple,0,UUBxy,,,,,0,15,15,8,,,,,,space,2.29755365884,9,1,4.24253819226,2015_Jul_07_1404,None,KRITL,001,31003,
,,,,,,,,"('DIVIDE', 'DOUBLE', 'INCREASE', 'TRIPLE', 'x', 'y')",double,4,"(9, 10, 20, 5)",5,5,4,3,increase,DIVIDE,triple,BUUUxy,,,,,0,16,16,10,,,,,,space,2.7390023486,5,1,5.83069945906,2015_Jul_07_1404,None,KRITL,001,31003,
,,,,,,,,"('INCREASE', 'DIVIDE', 'x', 'y')",DIVIDE,2,"(4, 5)",5,5,2,8,0,increase,0,UBxy,,,,,0,17,17,3,,,,,,space,1.04383627226,5,1,2.85722869788,2015_Jul_07_1404,None,KRITL,001,31003,
,,,,,,,,"('THIRD', 'INCREASE', 'DIVIDE', 'DOUBLE', 'x', 'y')",increse,4,"(18, 2, 3, 1)",1,1,9,9,DIVIDE,third,double,UUBUxy,,,,,0,0,0,15,,,,,,space,1.90477212033,1,1,4.485897046,2015_Jul_07_1404,None,KRITL,001,31003,
,,,,,,,,"('INCREASE', 'SUBTRACT', 'HALF', 'x', 'y')",SUBTRACT,3,"(4, 2, 3)",3,3,2,8,half,increase,0,UBUxy,,,,,0,1,1,7,,,,,,space,1.39506049273,3,1,2.93337173586,2015_Jul_07_1404,None,KRITL,001,31003,
,,,,,,,,"('THIRD', 'DOUBLE', 'INCREASE', 'TIMES', 'x', 'y')",double,4,"(8, 9, 18, 6)",6,6,4,2,increase,third,TIMES,UUUBxy,,,,,0,2,2,17,,,,,,space,1.66786202108,6,1,5.08996584718,2015_Jul_07_1404,None,KRITL,001,31003,
,,,,,,,,"('HALF', 'ADD', 'TRIPLE', 'x', 'y')",ADD,3,"(9, 12, 6)",6,6,3,3,triple,half,0,UBUxy,,,,,0,3,3,6,,,,,,space,2.04079685006,6,1,3.46260495806,2015_Jul_07_1404,None,KRITL,001,31003,
,,,,,,,,"('SUBTRACT', 'DECREASE', 'x', 'y')",decrease,2,"(5, 3)",3,3,2,6,0,SUBTRACT,0,BUxy,,,,,0,4,4,1,,,,,,space,0.753522632584,3,1,3.35226955773,2015_Jul_07_1404,None,KRITL,001,31003,
,,,,,,,,"('INCREASE', 'TRIPLE', 'DIVIDE', 'x', 'y')",triple,3,"(2, 6, 7)",7,7,3,6,DIVIDE,increase,0,UUBxy,,,,,0,5,5,8,,,,,,space,1.29728313801,7,1,4.06868919187,2015_Jul_07_1404,None,KRITL,001,31003,
,,,,,,,,"('INCREASE', 'ADD', 'x', 'y')",ADD,2,"(5, 6)",6,6,2,3,0,increase,0,UBxy,,,,,0,6,6,3,,,,,,space,0.694712875216,6,1,1.9430124961,2015_Jul_07_1404,None,KRITL,001,31003,
,,,,,,,,"('HALF', 'TRIPLE', 'INCREASE', 'DIVIDE', 'x', 'y')",triple,4,"(3, 4, 12, 6)",6,6,3,9,increase,half,DIVIDE,UUUBxy,,,,,0,7,7,16,,,,,,space,1.93964235957,6,1,5.20528680982,2015_Jul_07_1404,None,KRITL,001,31003,
,,,,,,,,"('SUBTRACT', 'DECREASE', 'TRIPLE', 'DOUBLE', 'x', 'y')",decrease,4,"(6, 18, 17, 8)",8,8,9,3,triple,SUBTRACT,double,BUUUxy,,,,,0,8,8,11,,,,,,space,4.0033907843,9,0,19.1048052967,2015_Jul_07_1404,None,KRITL,001,31003,
,,,,,,,,"('THIRD', 'DOUBLE', 'ADD', 'DECREASE', 'x', 'y')",double,4,"(5, 12, 24, 8)",8,8,7,6,ADD,third,decrease,UUBUxy,,,,,0,9,9,14,,,,,,space,4.30934983662,8,1,5.58868726008,2015_Jul_07_1404,None,KRITL,001,31003,
,,,,,,,,"('DIVIDE', 'INCREASE', 'x', 'y')",increase,2,"(4, 2)",2,2,2,3,0,DIVIDE,0,BUxy,,,,,0,10,10,0,,,,,,space,0.93730496166,2,1,1.26847249524,2015_Jul_07_1404,None,KRITL,001,31003,
,,,,,,,,"('THIRD', 'HALF', 'ADD', 'x', 'y')",half,3,"(6, 3, 1)",1,1,3,3,ADD,third,0,UUBxy,,,,,0,11,11,9,,,,,,space,1.21552005616,1,1,7.23964680409,2015_Jul_07_1404,None,KRITL,001,31003,
,,,,,,,,"('THIRD', 'TIMES', 'DOUBLE', 'DECREASE', 'x', 'y')",TIMES,4,"(1, 2, 6, 2)",2,2,3,2,double,third,decrease,UBUUxy,,,,,0,12,12,13,,,,,,space,1.98542092235,2,1,6.12690751302,2015_Jul_07_1404,None,KRITL,001,31003,
,,,,,,,,"('DOUBLE', 'ADD', 'INCREASE', 'THIRD', 'x', 'y')",ADD,4,"(1, 2, 4, 8)",8,8,2,3,increase,double,third,UBUUxy,,,,,0,13,13,12,,,,,,space,2.0849781851,8,1,13.8110529279,2015_Jul_07_1404,None,KRITL,001,31003,
,,,,,,,,"('ADD', 'DOUBLE', 'DECREASE', 'THIRD', 'x', 'y')",double,4,"(2, 1, 2, 8)",8,8,6,6,decrease,ADD,third,BUUUxy,,,,,0,14,14,10,,,,,,space,2.15309693849,8,1,4.03611540495,2015_Jul_07_1404,None,KRITL,001,31003,
,,,,,,,,"('DECREASE', 'DIVIDE', 'x', 'y')",DIVIDE,2,"(2, 1)",1,1,4,8,0,decrease,0,UBxy,,,,,0,15,15,2,,,,,,space,1.09180419892,1,1,2.47028627962,2015_Jul_07_1404,None,KRITL,001,31003,
,,,,,,,,"('ADD', 'HALF', 'THIRD', 'x', 'y')",half,3,"(2, 1, 9)",9,9,8,6,third,ADD,0,BUUxy,,,,,0,16,16,4,,,,,,space,1.24190616042,9,1,3.36263753954,2015_Jul_07_1404,None,KRITL,001,31003,
,,,,,,,,"('DIVIDE', 'DECREASE', 'TRIPLE', 'x', 'y')",decrease,3,"(9, 8, 4)",4,4,2,3,triple,DIVIDE,0,BUUxy,,,,,0,17,17,5,,,,,,space,3.15335521064,4,1,3.3943374707,2015_Jul_07_1404,None,KRITL,001,31003,
,,,,,,,,"('THIRD', 'INCREASE', 'HALF', 'DIVIDE', 'x', 'y')",increase,4,"(4, 2, 3, 1)",1,1,2,8,half,third,DIVIDE,UUUBxy,,,,,0,0,0,16,,,,,,space,3.55720500544,1,1,2.91478139083,2015_Jul_07_1404,None,KRITL,001,31003,
,,,,,,,,"('TIMES', 'DECREASE', 'x', 'y')",decrease,2,"(2, 4)",4,4,2,3,0,TIMES,0,BUxy,,,,,0,1,1,0,,,,,,space,0.639248407059,4,1,2.48194422232,2015_Jul_07_1404,None,KRITL,001,31003,
,,,,,,,,"('TIMES', 'THIRD', 'HALF', 'x', 'y')",third,3,"(3, 1, 5)",5,5,5,6,half,TIMES,0,BUUxy,,,,,0,2,2,5,,,,,,space,1.65416554825,5,1,4.2937607679,2015_Jul_07_1404,None,KRITL,001,31003,
,,,,,,,,"('TIMES', 'DECREASE', 'HALF', 'x', 'y')",decrease,3,"(4, 3, 9)",9,9,3,8,half,TIMES,0,BUUxy,,,,,0,3,3,4,,,,,,space,2.43758300667,9,1,2.72631901649,2015_Jul_07_1404,None,KRITL,001,31003,
,,,,,,,,"('THIRD', 'DOUBLE', 'ADD', 'INCREASE', 'x', 'y')",double,4,"(10, 12, 24, 8)",8,8,2,9,ADD,third,increase,UUBUxy,,,,,0,4,4,14,,,,,,space,12.0504267615,8,1,3.87839231539,2015_Jul_07_1404,None,KRITL,001,31003,
,,,,,,,,"('THIRD', 'TIMES', 'DECREASE', 'x', 'y')",TIMES,3,"(3, 15, 5)",5,5,5,4,decrease,third,0,UBUxy,,,,,0,5,5,7,,,,,,space,0.835570933675,5,1,2.80883591705,2015_Jul_07_1404,None,KRITL,001,31003,
,,,,,,,,"('TRIPLE', 'SUBTRACT', 'DOUBLE', 'DECREASE', 'x', 'y')",SUBTRACT,4,"(2, 4, 1, 3)",3,3,3,3,double,triple,decrease,UBUUxy,,,,,0,6,6,13,,,,,,space,2.7377589327,3,1,4.66472285964,2015_Jul_07_1404,None,KRITL,001,31003,
,,,,,,,,"('THIRD', 'ADD', 'INCREASE', 'x', 'y')",ADD,3,"(8, 15, 5)",5,5,7,7,increase,third,0,UBUxy,,,,,0,7,7,6,,,,,,space,1.25158016708,5,1,2.45041017326,2015_Jul_07_1404,None,KRITL,001,31003,
,,,,,,,,"('SUBTRACT', 'HALF', 'INCREASE', 'TRIPLE', 'x', 'y')",half,4,"(15, 16, 8, 3)",3,3,5,5,increase,SUBTRACT,triple,BUUUxy,,,,,0,8,8,10,,,,,,space,2.41969713566,3,1,8.42409686115,2015_Jul_07_1404,None,KRITL,001,31003,
,,,,,,,,"('THIRD', 'ADD', 'x', 'y')",ADD,2,"(9, 3)",3,3,5,4,0,third,0,UBxy,,,,,0,9,9,2,,,,,,space,0.802255576736,3,1,2.03372376289,2015_Jul_07_1404,None,KRITL,001,31003,
,,,,,,,,"('THIRD', 'DECREASE', 'TIMES', 'x', 'y')",decrease,3,"(25, 24, 8)",8,8,5,5,TIMES,thid,0,UUBxy,,,,,0,10,10,8,,,,,,space,1.19136356144,8,1,2.32437266641,2015_Jul_07_1404,None,KRITL,001,31003,
,,,,,,,,"('INCREASE', 'DIVIDE', 'TRIPLE', 'DOUBLE', 'x', 'y')",DIVIDE,4,"(6, 18, 3, 4)",4,4,6,3,triple,increase,double,UBUUxy,,,,,0,11,11,12,,,,,,space,3.42703059475,4,1,3.10986015158,2015_Jul_07_1404,None,KRITL,001,31003,
,,,,,,,,"('TRIPLE', 'HALF', 'DIVIDE', 'x', 'y')",half,3,"(2, 1, 3)",3,3,2,4,DIVIDE,triple,0,UUBxy,,,,,0,12,12,9,,,,,,space,1.92556652765,3,1,3.02583211401,2015_Jul_07_1404,None,KRITL,001,31003,
,,,,,,,,"('TRIPLE', 'HALF', 'ADD', 'DECREASE', 'x', 'y')",half,4,"(1, 4, 2, 6)",6,6,3,2,ADD,triple,decrease,UUBUxy,,,,,0,13,13,15,,,,,,space,1.95519853184,6,1,3.71778728664,2015_Jul_07_1404,None,KRITL,001,31003,
,,,,,,,,"('THIRD', 'SUBTRACT', 'x', 'y')",SUBTRACT,2,"(3, 1)",1,1,2,5,0,third,0,UBxy,,,,,0,14,14,3,,,,,,space,0.77188585211,1,1,1.50966788232,2015_Jul_07_1404,None,KRITL,001,31003,
,,,,,,,,"('TRIPLE', 'DECREASE', 'HALF', 'TIMES', 'x', 'y')",decrease,4,"(6, 3, 2, 6)",6,6,2,3,half,triple,TIMES,UUUBxy,,,,,0,15,15,17,,,,,,space,2.59440949294,6,1,4.61358952437,2015_Jul_07_1404,None,KRITL,001,31003,
,,,,,,,,"('TIMES', 'INCREASE', 'THIRD', 'DOUBLE', 'x', 'y')",increase,4,"(6, 2, 3, 9)",9,9,3,3,third,TIMES,double,BUUUxy,,,,,0,16,16,11,,,,,,space,1.83148442441,9,1,3.3160491641,2015_Jul_07_1404,None,KRITL,001,31003,
,,,,,,,,"('TIMES', 'INCREASE', 'x', 'y')",increase,2,"(3, 6)",6,6,2,2,0,TIMES,0,BUxy,,,,,0,17,17,1,,,,,,space,0.696190415864,6,1,1.95393726787,2015_Jul_07_1404,None,KRITL,001,31003,
,,,,,,,,"('DECREASE', 'DIVIDE', 'TRIPLE', 'DOUBLE', 'x', 'y')",DIVIDE,4,"(6, 18, 2, 1)",1,1,9,3,triple,decrease,double,UBUUxy,,,,,0,0,0,12,,,,,,space,1.89151729986,3,0,5.07485552683,2015_Jul_07_1404,None,KRITL,001,31003,
,,,,,,,,"('TRIPLE', 'SUBTRACT', 'x', 'y')",SUBTRACT,2,"(2, 6)",6,6,6,8,0,triple,0,UBxy,,,,,0,1,1,3,,,,,,space,1.15577274991,6,1,1.63750384521,2015_Jul_07_1404,None,KRITL,001,31003,
,,,,,,,,"('DIVIDE', 'DECREASE', 'THIRD', 'DOUBLE', 'x', 'y')",decrease,4,"(12, 4, 3, 1)",1,1,3,6,third,DIVIDE,double,BUUUxy,,,,,0,2,2,10,,,,,,space,3.01127053447,1,1,5.12767043074,2015_Jul_07_1404,None,KRITL,001,31003,
,,,,,,,,"('ADD', 'DECREASE', 'HALF', 'x', 'y')",decrease,3,"(3, 2, 6)",6,6,4,6,half,ADD,0,BUUxy,,,,,0,3,3,4,,,,,,space,1.20367978314,6,1,2.51910531449,2015_Jul_07_1404,None,KRITL,001,31003,
,,,,,,,,"('THIRD', 'INCREASE', 'SUBTRACT', 'HALF', 'x', 'y')",increase,4,"(4, 2, 3, 1)",1,1,2,8,SUBTRACT,third,half,UUBUxy,,,,,0,4,4,15,,,,,,space,3.47527709137,1,1,4.69609452621,2015_Jul_07_1404,None,KRITL,001,31003,
,,,,,,,,"('TRIPLE', 'SUBTRACT', 'INCREASE', 'HALF', 'x', 'y')",SUBTRACT,4,"(3, 4, 1, 3)",3,3,3,6,increase,triple,half,UBUUxy,,,,,0,5,5,13,,,,,,space,1.36172413805,3,1,3.35124241851,2015_Jul_07_1404,None,KRITL,001,31003,
,,,,,,,,"('INCREASE', 'DIVIDE', 'HALF', 'x', 'y')",DIVIDE,3,"(2, 1, 2)",2,2,2,4,half,increase,0,UBUxy,,,,,0,6,6,7,,,,,,space,0.741528726126,2,1,2.0023171001,2015_Jul_07_1404,None,KRITL,001,31003,
,,,,,,,,"('DECREASE', 'HALF', 'TRIPLE', 'ADD', 'x', 'y')",half,4,"(4, 12, 6, 5)",5,5,2,2,triple,decrease,ADD,UUUBxy,,,,,0,7,7,16,,,,,,space,1.71563886835,7,0,9.4292434061,2015_Jul_07_1404,None,KRITL,001,31003,
,,,,,,,,"('SUBTRACT', 'THIRD', 'x', 'y')",third,2,"(3, 1)",1,1,2,9,0,SUBTRACT,0,BUxy,,,,,0,8,8,0,,,,,,space,0.6107436313,1,1,2.006017601,2015_Jul_07_1404,None,KRITL,001,31003,
,,,,,,,,"('TIMES', 'THIRD', 'x', 'y')",third,2,"(1, 4)",4,4,4,3,0,TIMES,0,BUxy,,,,,0,9,9,1,,,,,,space,0.693434813055,4,1,1.85637898953,2015_Jul_07_1404,None,KRITL,001,31003,
,,,,,,,,"('INCREASE', 'HALF', 'TIMES', 'TRIPLE', 'x', 'y')",half,4,"(6, 12, 6, 7)",7,7,2,2,TIMES,increase,triple,UUBUxy,,,,,0,10,10,14,,,,,,space,1.36759860449,7,1,7.93486432488,2015_Jul_07_1404,None,KRITL,001,31003,
,,,,,,,,"('INCREASE', 'TRIPLE', 'HALF', 'ADD', 'x', 'y')",triple,4,"(4, 2, 6, 7)",7,7,2,2,half,increase,ADD,UUUBxy,,,,,0,11,11,17,,,,,,space,1.73105225601,7,1,5.28817327051,2015_Jul_07_1404,None,KRITL,001,31003,
,,,,,,,,"('SUBTRACT', 'DOUBLE', 'DECREASE', 'x', 'y')",double,3,"(8, 16, 7)",7,7,9,9,decrease,SUBTRACT,0,BUUxy,,,,,0,12,12,5,,,,,,space,1.47244519679,7,1,7.44805527724,2015_Jul_07_1404,None,KRITL,001,31003,
,,,,,,,,"('DECREASE', 'HALF', 'DIVIDE', 'x', 'y')",half,3,"(4, 2, 1)",1,1,2,8,DIVIDE,decrease,0,UUBxy,,,,,0,13,13,8,,,,,,space,1.77646335843,1,1,5.72995197468,2015_Jul_07_1404,None,KRITL,001,31003,
,,,,,,,,"('DOUBLE', 'TIMES', 'THIRD', 'x', 'y')",TIMES,3,"(1, 4, 8)",8,8,4,3,third,double,0,UBUxy,,,,,0,14,14,6,,,,,,space,0.85461482979,8,1,4.07380179048,2015_Jul_07_1404,None,KRITL,001,31003,
,,,,,,,,"('TRIPLE', 'HALF', 'TIMES', 'x', 'y')",half,3,"(6, 3, 9)",9,9,3,2,TIMES,triple,0,UUBxy,,,,,0,15,15,9,,,,,,space,0.796509896408,9,1,2.86597845422,2015_Jul_07_1404,None,KRITL,001,31003,
,,,,,,,,"('TIMES', 'DECREASE', 'THIRD', 'DOUBLE', 'x', 'y')",decrease,4,"(6, 2, 1, 2)",2,2,2,3,third,TIMES,double,BUUUxy,,,,,0,16,16,11,,,,,,space,2.74281308761,2,1,7.03735357142,2015_Jul_07_1404,None,KRITL,001,31003,
,,,,,,,,"('INCREASE', 'TIMES', 'x', 'y')",TIMES,2,"(8, 9)",9,9,4,2,0,increase,0,UBxy,,,,,0,17,17,2,,,,,,space,0.803790161232,9,1,2.64647512766,2015_Jul_07_1404,None,KRITL,001,31003,
,,,,,,,,"('INCREASE', 'ADD', 'HALF', 'x', 'y')",ADD,3,"(1, 4, 5)",5,5,3,2,half,increase,0,UBUxy,,,,,0,0,0,7,,,,,,space,2.47908538064,5,1,6.43939651109,2015_Jul_07_1404,None,KRITL,001,31003,
,,,,,,,,"('INCREASE', 'HALF', 'THIRD', 'TIMES', 'x', 'y')",half,4,"(12, 4, 2, 3)",3,3,4,3,third,increase,TIMES,UUUBxy,,,,,0,1,1,16,,,,,,space,1.36426661385,3,1,7.74586440852,2015_Jul_07_1404,None,KRITL,001,31003,
,,,,,,,,"('THIRD', 'HALF', 'INCREASE', 'SUBTRACT', 'x', 'y')",half,4,"(5, 6, 3, 1)",1,1,2,7,increase,third,SUBTRACT,UUUBxy,,,,,0,2,2,17,,,,,,space,3.07440302563,1,1,3.21293243524,2015_Jul_07_1404,None,KRITL,001,31003,
,,,,,,,,"('ADD', 'DECREASE', 'THIRD', 'DOUBLE', 'x', 'y')",decrease,4,"(18, 6, 5, 9)",9,9,4,9,third,ADD,double,BUUUxy,,,,,0,3,3,10,,,,,,space,5.73625619477,9,1,6.59517206069,2015_Jul_07_1404,None,KRITL,001,31003,
,,,,,,,,"('DECREASE', 'ADD', 'THIRD', 'HALF', 'x', 'y')",ADD,4,"(3, 1, 7, 6)",6,6,6,6,third,decrease,half,UBUUxy,,,,,0,4,4,12,,,,,,space,1.90580625879,6,1,5.87828172731,2015_Jul_07_1404,None,KRITL,001,31003,
,,,,,,,,"('DIVIDE', 'DECREASE', 'x', 'y')",decrease,2,"(8, 2)",2,2,4,9,0,DIVIDE,0,BUxy,,,,,0,5,5,1,,,,,,space,1.19343148841,2,1,1.42896973561,2015_Jul_07_1404,None,KRITL,001,31003,
,,,,,,,,"('ADD', 'TRIPLE', 'DOUBLE', 'DECREASE', 'x', 'y')",triple,4,"(1, 2, 6, 8)",8,8,2,2,double,ADD,decrease,BUUUxy,,,,,0,6,6,11,,,,,,space,2.10177252383,8,1,8.14876370583,2015_Jul_07_1404,None,KRITL,001,31003,
,,,,,,,,"('DECREASE', 'TRIPLE', 'SUBTRACT', 'DOUBLE', 'x', 'y')",triple,4,"(6, 3, 9, 8)",8,8,3,3,SUBTRACT,decrease,double,UUBUxy,,,,,0,7,7,15,,,,,,space,5.47644841504,8,1,9.93939563618,2015_Jul_07_1404,None,KRITL,001,31003,
,,,,,,,,"('DOUBLE', 'SUBTRACT', 'INCREASE', 'x', 'y')",SUBTRACT,3,"(4, 1, 2)",2,2,3,3,increase,double,0,UBUxy,,,,,0,8,8,6,,,,,,space,1.32959095362,2,1,2.24463901568,2015_Jul_07_1404,None,KRITL,001,31003,
,,,,,,,,"('ADD', 'DECREASE', 'x', 'y')",decrease,2,"(2, 7)",7,7,5,3,0,ADD,0,BUxy,,,,,0,9,9,0,,,,,,space,0.580758515194,7,1,1.89412731837,2015_Jul_07_1404,None,KRITL,001,31003,
,,,,,,,,"('DECREASE', 'SUBTRACT', 'DOUBLE', 'THIRD', 'x', 'y')",SUBTRACT,4,"(3, 6, 4, 3)",3,3,2,9,double,decrease,third,UBUUxy,,,,,0,10,10,13,,,,,,space,4.67355555703,3,1,4.56944248563,2015_Jul_07_1404,None,KRITL,001,31003,
,,,,,,,,"('HALF', 'INCREASE', 'TIMES', 'x', 'y')",increase,3,"(9, 10, 5)",5,5,3,3,TIMES,half,0,UUBxy,,,,,0,11,11,9,,,,,,space,1.07701864354,5,1,3.3016986118,2015_Jul_07_1404,None,KRITL,001,31003,
,,,,,,,,"('ADD', 'TRIPLE', 'HALF', 'x', 'y')",triple,3,"(2, 6, 8)",8,8,2,4,half,ADD,0,BUUxy,,,,,0,12,12,5,,,,,,space,0.901260949006,8,1,2.7086119762,2015_Jul_07_1404,None,KRITL,001,31003,
,,,,,,,,"('DECREASE', 'TIMES', 'x', 'y')",TIMES,2,"(9, 8)",8,8,3,3,0,decrease,0,UBxy,,,,,0,13,13,2,,,,,,space,0.582519875232,8,1,1.62267279474,2015_Jul_07_1404,None,KRITL,001,31003,
,,,,,,,,"('HALF', 'ADD', 'x', 'y')",ADD,2,"(12, 6)",6,6,8,4,0,half,0,UBxy,,,,,0,14,14,3,,,,,,space,0.581006288472,6,1,2.37464684434,2015_Jul_07_1404,None,KRITL,001,31003,
,,,,,,,,"('DOUBLE', 'THIRD', 'ADD', 'x', 'y')",third,3,"(9, 3, 6)",6,6,4,5,ADD,double,0,UUBxy,,,,,0,15,15,8,,,,,,space,1.55269434192,6,1,2.79054234001,2015_Jul_07_1404,None,KRITL,001,31003,
,,,,,,,,"('ADD', 'DOUBLE', 'DECREASE', 'x', 'y')",double,3,"(1, 2, 7)",7,7,5,2,decrease,ADD,0,BUUxy,,,,,0,16,16,4,,,,,,space,1.02831544618,7,1,2.36043382721,2015_Jul_07_1404,None,KRITL,001,31003,
,,,,,,,,"('DECREASE', 'DOUBLE', 'TIMES', 'THIRD', 'x', 'y')",double,4,"(1, 3, 6, 5)",5,5,3,3,TIMES,decrease,third,UUBUxy,,,,,0,17,17,14,,,,,,space,1.87393099654,5,1,4.96475670099,2015_Jul_07_1404,None,KRITL,001,31003,
