operationc,operationb,operationa,correctresponse,valuey,operationd,condition,valuex,Rule,Operatora,Length,Intermediate,CorrectResponse,Result,Y,X,Operatorc,Operatorb,Operatord,Structure,practice_trials.thisRepN,practice_trials.thisTrialN,practice_trials.thisN,practice_trials.thisIndex,block.thisRepN,block.thisTrialN,block.thisN,block.thisIndex,practice_encoding.keys,practice_encoding.rt,practice_execution.keys,practice_execution.corr,practice_execution.rt,encoding.keys,encoding.rt,execution.keys,execution.corr,execution.rt,date,frameRate,expName,session,participant,
increase,DIVIDE,triple,3,3,0,3,2,,,,,,,,,,,,,0,0,0,4,,,,,['space'],[11.22874733019853],3,1,17.9925027323,,,,,,2015_Jul_09_1535,None,KRITL,001,31016,
0,ADD,decrease,7,5,0,2,3,,,,,,,,,,,,,0,1,1,0,,,,,['space'],[8.344159686937928],7,1,4.29755924968,,,,,,2015_Jul_09_1535,None,KRITL,001,31016,
increase,DIVIDE,double,9,8,triple,4,8,,,,,,,,,,,,,0,2,2,5,,,,,['space'],[16.221635022375267],5,0,12.4663413873,,,,,,2015_Jul_09_1535,None,KRITL,001,31016,
ADD,triple ,half,8,2,0,3,4,,,,,,,,,,,,,0,3,3,3,,,,,['space'],[16.17826859766501],8,1,2.20955183325,,,,,,2015_Jul_09_1535,None,KRITL,001,31016,
0,decrease,TIMES,8,3,0,2,3,,,,,,,,,,,,,0,4,4,1,,,,,['space'],[3.094034837471554],8,1,2.97895739577,,,,,,2015_Jul_09_1535,None,KRITL,001,31016,
0,ADD,half,7,5,0,2,4,,,,,,,,,,,,,0,5,5,2,,,,,['space'],[2.3015449837839697],7,1,1.7177929483,,,,,,2015_Jul_09_1535,None,KRITL,001,31016,
,,,,,,,,"('INCREASE', 'HALF', 'TIMES', 'TRIPLE', 'x', 'y')",half,4,"(6, 12, 6, 7)",7,7,2,2,TIMES,increase,triple,UUBUxy,,,,,0,0,0,14,,,,,,space,9.51420834236,7,1,17.5646590778,2015_Jul_09_1535,None,KRITL,001,31016,
,,,,,,,,"('TIMES', 'THIRD', 'x', 'y')",third,2,"(1, 4)",4,4,4,3,0,TIMES,0,BUxy,,,,,0,1,1,1,,,,,,space,5.85653947011,4,1,7.76250953213,2015_Jul_09_1535,None,KRITL,001,31016,
,,,,,,,,"('DIVIDE', 'DECREASE', 'THIRD', 'DOUBLE', 'x', 'y')",decrease,4,"(12, 4, 3, 1)",1,1,3,6,third,DIVIDE,double,BUUUxy,,,,,0,2,2,10,,,,,,space,13.7184925253,1,1,7.92585428711,2015_Jul_09_1535,None,KRITL,001,31016,
,,,,,,,,"('TIMES', 'DECREASE', 'THIRD', 'DOUBLE', 'x', 'y')",decrease,4,"(6, 2, 1, 2)",2,2,2,3,third,TIMES,double,BUUUxy,,,,,0,3,3,11,,,,,,space,9.74566403998,2,1,4.2693252459,2015_Jul_09_1535,None,KRITL,001,31016,
,,,,,,,,"('THIRD', 'INCREASE', 'SUBTRACT', 'HALF', 'x', 'y')",increase,4,"(4, 2, 3, 1)",1,1,2,8,SUBTRACT,third,half,UUBUxy,,,,,0,4,4,15,,,,,,None,,None,0,,2015_Jul_09_1535,None,KRITL,001,31016,
,,,,,,,,"('ADD', 'DECREASE', 'HALF', 'x', 'y')",decrease,3,"(3, 2, 6)",6,6,4,6,half,ADD,0,BUUxy,,,,,0,5,5,4,,,,,,space,5.56967755413,6,1,6.44905039159,2015_Jul_09_1535,None,KRITL,001,31016,
,,,,,,,,"('INCREASE', 'DIVIDE', 'HALF', 'x', 'y')",DIVIDE,3,"(2, 1, 2)",2,2,2,4,half,increase,0,UBUxy,,,,,0,6,6,7,,,,,,space,3.88417608623,2,1,2.77808955635,2015_Jul_09_1535,None,KRITL,001,31016,
,,,,,,,,"('INCREASE', 'TIMES', 'x', 'y')",TIMES,2,"(8, 9)",9,9,4,2,0,increase,0,UBxy,,,,,0,7,7,2,,,,,,space,2.04912682361,9,1,2.35901703656,2015_Jul_09_1535,None,KRITL,001,31016,
,,,,,,,,"('DECREASE', 'DIVIDE', 'TRIPLE', 'DOUBLE', 'x', 'y')",DIVIDE,4,"(6, 18, 2, 1)",1,1,9,3,triple,decrease,double,UBUUxy,,,,,0,8,8,12,,,,,,space,9.55531225316,3,0,6.10846768142,2015_Jul_09_1535,None,KRITL,001,31016,
,,,,,,,,"('INCREASE', 'TRIPLE', 'HALF', 'ADD', 'x', 'y')",triple,4,"(4, 2, 6, 7)",7,7,2,2,half,increase,ADD,UUUBxy,,,,,0,9,9,17,,,,,,space,10.2341892624,7,1,6.79329826933,2015_Jul_09_1535,None,KRITL,001,31016,
,,,,,,,,"('DECREASE', 'HALF', 'DIVIDE', 'x', 'y')",half,3,"(4, 2, 1)",1,1,2,8,DIVIDE,decrease,0,UUBxy,,,,,0,10,10,8,,,,,,space,4.06279289757,1,1,6.39427900701,2015_Jul_09_1535,None,KRITL,001,31016,
,,,,,,,,"('SUBTRACT', 'THIRD', 'x', 'y')",third,2,"(3, 1)",1,1,2,9,0,SUBTRACT,0,BUxy,,,,,0,11,11,0,,,,,,space,3.80480296881,1,1,5.0630924663,2015_Jul_09_1535,None,KRITL,001,31016,
,,,,,,,,"('TRIPLE', 'SUBTRACT', 'x', 'y')",SUBTRACT,2,"(2, 6)",6,6,6,8,0,triple,0,UBxy,,,,,0,12,12,3,,,,,,space,1.7461228421,6,1,1.97785641067,2015_Jul_09_1535,None,KRITL,001,31016,
,,,,,,,,"('DOUBLE', 'TIMES', 'THIRD', 'x', 'y')",TIMES,3,"(1, 4, 8)",8,8,4,3,third,double,0,UBUxy,,,,,0,13,13,6,,,,,,space,11.0877277956,8,1,11.7886322062,2015_Jul_09_1535,None,KRITL,001,31016,
,,,,,,,,"('TRIPLE', 'HALF', 'TIMES', 'x', 'y')",half,3,"(6, 3, 9)",9,9,3,2,TIMES,triple,0,UUBxy,,,,,0,14,14,9,,,,,,space,7.24536919573,8,0,3.02508013288,2015_Jul_09_1535,None,KRITL,001,31016,
,,,,,,,,"('DECREASE', 'HALF', 'TRIPLE', 'ADD', 'x', 'y')",half,4,"(4, 12, 6, 5)",5,5,2,2,triple,decrease,ADD,UUUBxy,,,,,0,15,15,16,,,,,,space,9.62101929664,5,1,3.0830214867,2015_Jul_09_1535,None,KRITL,001,31016,
,,,,,,,,"('TRIPLE', 'SUBTRACT', 'INCREASE', 'HALF', 'x', 'y')",SUBTRACT,4,"(3, 4, 1, 3)",3,3,3,6,increase,triple,half,UBUUxy,,,,,0,16,16,13,,,,,,space,14.3389854768,3,1,9.04088308386,2015_Jul_09_1535,None,KRITL,001,31016,
,,,,,,,,"('SUBTRACT', 'DOUBLE', 'DECREASE', 'x', 'y')",double,3,"(8, 16, 7)",7,7,9,9,decrease,SUBTRACT,0,BUUxy,,,,,0,17,17,5,,,,,,space,4.30633423402,7,1,12.2577526535,2015_Jul_09_1535,None,KRITL,001,31016,
,,,,,,,,"('HALF', 'TIMES', 'x', 'y')",TIMES,2,"(16, 8)",8,8,4,4,0,half,0,UBxy,,,,,0,0,0,3,,,,,,space,5.15543348051,8,1,2.84220846556,2015_Jul_09_1535,None,KRITL,001,31016,
,,,,,,,,"('ADD', 'DOUBLE', 'x', 'y')",double,2,"(4, 8)",8,8,4,2,0,ADD,0,BUxy,,,,,0,1,1,0,,,,,,space,2.22322770618,8,1,4.40557127862,2015_Jul_09_1535,None,KRITL,001,31016,
,,,,,,,,"('DECREASE', 'TIMES', 'DOUBLE', 'THIRD', 'x', 'y')",TIMES,4,"(1, 2, 8, 7)",7,7,4,3,double,decrease,third,UBUUxy,,,,,0,2,2,13,,,,,,space,6.9802932064,7,1,3.83165496681,2015_Jul_09_1535,None,KRITL,001,31016,
,,,,,,,,"('DECREASE', 'THIRD', 'TIMES', 'HALF', 'x', 'y')",third,4,"(2, 12, 4, 3)",3,3,6,4,TIMES,decrease,half,UUBUxy,,,,,0,3,3,14,,,,,,space,11.4434527257,9,0,10.6939586854,2015_Jul_09_1535,None,KRITL,001,31016,
,,,,,,,,"('DECREASE', 'HALF', 'TRIPLE', 'DIVIDE', 'x', 'y')",half,4,"(4, 12, 6, 5)",5,5,2,8,triple,decrease,DIVIDE,UUUBxy,,,,,0,4,4,16,,,,,,space,8.2261352028,5,1,7.9659657015,2015_Jul_09_1535,None,KRITL,001,31016,
,,,,,,,,"('DIVIDE', 'DOUBLE', 'x', 'y')",double,2,"(12, 2)",2,2,6,6,0,DIVIDE,0,BUxy,,,,,0,5,5,1,,,,,,space,1.585270877,2,1,2.20591571269,2015_Jul_09_1535,None,KRITL,001,31016,
,,,,,,,,"('DECREASE', 'ADD', 'DOUBLE', 'THIRD', 'x', 'y')",ADD,4,"(3, 6, 10, 9)",9,9,4,9,double,decrease ,third,UBUUxy,,,,,0,6,6,12,,,,,,space,10.8683734853,9,1,6.4931048445,2015_Jul_09_1535,None,KRITL,001,31016,
,,,,,,,,"('DIVIDE', 'INCREASE', 'DOUBLE', 'THIRD', 'x', 'y')",increase,4,"(2, 4, 5, 1)",1,1,5,6,double,DIVIDE,third,BUUUxy,,,,,0,7,7,11,,,,,,space,13.3304820642,1,1,3.72984989014,2015_Jul_09_1535,None,KRITL,001,31016,
,,,,,,,,"('DOUBLE', 'TRIPLE', 'DIVIDE', 'DECREASE', 'x', 'y')",triple,4,"(8, 1, 3, 6)",6,6,8,9,DIVIDE,double,decrease,UUBUxy,,,,,0,8,8,15,,,,,,space,12.6191844381,6,1,3.52348832399,2015_Jul_09_1535,None,KRITL,001,31016,
,,,,,,,,"('HALF', 'SUBTRACT', 'TRIPLE', 'x', 'y')",SUBTRACT,3,"(9, 2, 1)",1,1,7,3,triple,half,0,UBUxy,,,,,0,9,9,6,,,,,,space,4.01802941863,1,1,5.76987416364,2015_Jul_09_1535,None,KRITL,001,31016,
,,,,,,,,"('ADD', 'THIRD', 'INCREASE', 'HALF', 'x', 'y')",third,4,"(2, 3, 1, 7)",7,7,6,4,increase,ADD,half,BUUUxy,,,,,0,10,10,10,,,,,,space,6.1899990236,7,1,14.0235546421,2015_Jul_09_1535,None,KRITL,001,31016,
,,,,,,,,"('INCREASE', 'DIVIDE', 'THIRD', 'x', 'y')",DIVIDE,3,"(3, 1, 2)",2,2,3,9,third,increase,0,UBUxy,,,,,0,11,11,7,,,,,,space,2.95086162759,2,1,4.73974685741,2015_Jul_09_1535,None,KRITL,001,31016,
,,,,,,,,"('DOUBLE', 'SUBTRACT', 'x', 'y')",SUBTRACT,2,"(1, 2)",2,2,7,8,0,double,0,UBxy,,,,,0,12,12,2,,,,,,space,2.09499793698,2,1,1.23393168923,2015_Jul_09_1535,None,KRITL,001,31016,
,,,,,,,,"('DOUBLE', 'DECREASE', 'TRIPLE', 'DIVIDE', 'x', 'y')",decrease,4,"(1, 3, 2, 4)",4,4,4,4,triple,double,DIVIDE,UUUBxy,,,,,0,13,13,17,,,,,,space,8.46039130818,4,1,11.6666692331,2015_Jul_09_1535,None,KRITL,001,31016,
,,,,,,,,"('DOUBLE', 'DECREASE', 'SUBTRACT', 'x', 'y')",decrease,3,"(5, 4, 8)",8,8,2,7,SUBTRACT,double,0,UUBxy,,,,,0,14,14,8,,,,,,space,3.70231756315,8,1,3.3300708571,2015_Jul_09_1535,None,KRITL,001,31016,
,,,,,,,,"('SUBTRACT', 'HALF', 'TRIPLE', 'x', 'y')",half,3,"(12, 6, 2)",2,2,4,4,triple,SUBTRACT,0,BUUxy,,,,,0,15,15,5,,,,,,space,5.34932164827,2,1,1.87274592897,2015_Jul_09_1535,None,KRITL,001,31016,
,,,,,,,,"('DIVIDE', 'DOUBLE', 'THIRD', 'x', 'y')",double,3,"(2, 4, 1)",1,1,4,6,third,DIVIDE,0,BUUxy,,,,,0,16,16,4,,,,,,space,8.14182620042,1,1,2.09934378348,2015_Jul_09_1535,None,KRITL,001,31016,
,,,,,,,,"('DOUBLE', 'TRIPLE', 'SUBTRACT', 'x', 'y')",triple,3,"(1, 3, 6)",6,6,3,4,SUBTRACT,double,0,UUBxy,,,,,0,17,17,9,,,,,,space,8.03741739551,6,1,1.35049472586,2015_Jul_09_1535,None,KRITL,001,31016,
,,,,,,,,"('INCREASE', 'DIVIDE', 'x', 'y')",DIVIDE,2,"(4, 5)",5,5,2,8,0,increase,0,UBxy,,,,,0,0,0,3,,,,,,space,4.83235524374,5,1,1.77328595761,2015_Jul_09_1535,None,KRITL,001,31016,
,,,,,,,,"('HALF', 'SUBTRACT', 'DECREASE', 'TRIPLE', 'x', 'y')",SUBTRACT,4,"(15, 14, 10, 5)",5,5,4,5,decrease,half,triple,UBUUxy,,,,,0,1,1,12,,,,,,space,6.31450098183,5,1,6.08948111263,2015_Jul_09_1535,None,KRITL,001,31016,
,,,,,,,,"('TRIPLE', 'INCREASE', 'DIVIDE', 'DOUBLE', 'x', 'y')",increase,4,"(16, 2, 3, 9)",9,9,8,8,DIVIDE,triple,double,UUBUxy,,,,,0,2,2,15,,,,,,space,7.77561041506,1,0,6.5168883627,2015_Jul_09_1535,None,KRITL,001,31016,
,,,,,,,,"('DIVIDE', 'TRIPLE', 'DECREASE', 'x', 'y')",triple,3,"(6, 18, 9)",9,9,2,7,decrease,DIVIDE,0,BUUxy,,,,,0,3,3,4,,,,,,space,7.50073649813,9,1,9.55841642924,2015_Jul_09_1535,None,KRITL,001,31016,
,,,,,,,,"('INCREASE', 'DIVIDE', 'TRIPLE', 'x', 'y')",DIVIDE,3,"(6, 2, 3)",3,3,3,2,triple,increase,0,UBUxy,,,,,0,4,4,7,,,,,,space,14.2450587781,2,0,7.96065640551,2015_Jul_09_1535,None,KRITL,001,31016,
,,,,,,,,"('DIVIDE', 'DOUBLE', 'INCREASE', 'TRIPLE', 'x', 'y')",double,4,"(9, 10, 20, 5)",5,5,4,3,increase,DIVIDE,triple,BUUUxy,,,,,0,5,5,10,,,,,,space,5.89303506177,5,1,7.9079512053,2015_Jul_09_1535,None,KRITL,001,31016,
,,,,,,,,"('HALF', 'TIMES', 'DECREASE', 'x', 'y')",TIMES,3,"(8, 16, 8)",8,8,2,9,decrease,half,0,UBUxy,,,,,0,6,6,6,,,,,,space,2.75865328452,8,1,8.59610224675,2015_Jul_09_1535,None,KRITL,001,31016,
,,,,,,,,"('THIRD', 'INCREASE', 'HALF', 'TIMES', 'x', 'y')",increase,4,"(28, 14, 15, 5)",5,5,4,7,half,third,TIMES,UUUBxy,,,,,0,7,7,17,,,,,,space,5.45186444794,5,1,8.68312451596,2015_Jul_09_1535,None,KRITL,001,31016,
,,,,,,,,"('ADD', 'HALF', 'x', 'y')",half,2,"(2, 7)",7,7,5,4,0,ADD,0,BUxy,,,,,0,8,8,0,,,,,,space,1.66461319762,7,1,1.95074753949,2015_Jul_09_1535,None,KRITL,001,31016,
,,,,,,,,"('TIMES', 'HALF', 'INCREASE', 'THIRD', 'x', 'y')",half,4,"(1, 2, 1, 9)",9,9,9,3,increase,TIMES,third,BUUUxy,,,,,0,9,9,11,,,,,,space,15.3223016678,9,1,6.47857541067,2015_Jul_09_1535,None,KRITL,001,31016,
,,,,,,,,"('SUBTRACT', 'INCREASE', 'HALF', 'x', 'y')",increase,3,"(4, 5, 3)",3,3,2,8,half,SUBTRACT,0,BUUxy,,,,,0,10,10,5,,,,,,space,6.02959221206,3,1,3.09451533732,2015_Jul_09_1535,None,KRITL,001,31016,
,,,,,,,,"('DECREASE', 'THIRD', 'DOUBLE', 'ADD', 'x', 'y')",third,4,"(9, 18, 6, 5)",5,5,4,5,double,decrease,ADD,UUUBxy,,,,,0,11,11,16,,,,,,space,10.9064103161,5,1,3.69575154834,2015_Jul_09_1535,None,KRITL,001,31016,
,,,,,,,,"('TRIPLE', 'DOUBLE', 'SUBTRACT', 'INCREASE', 'x', 'y')",double,4,"(5, 1, 2, 6)",6,6,4,4,SUBTRACT,triple,increase,UUBUxy,,,,,0,12,12,14,,,,,,space,10.0122452222,6,1,4.21259651554,2015_Jul_09_1535,None,KRITL,001,31016,
,,,,,,,,"('TRIPLE', 'INCREASE', 'SUBTRACT', 'x', 'y')",increase,3,"(1, 2, 6)",6,6,2,3,SUBTRACT,triple,0,UUBxy,,,,,0,13,13,9,,,,,,space,3.34621852211,6,1,2.96136508157,2015_Jul_09_1535,None,KRITL,001,31016,
,,,,,,,,"('DOUBLE', 'DIVIDE', 'x', 'y')",DIVIDE,2,"(1, 2)",2,2,8,8,0,dpuble,0,UBxy,,,,,0,14,14,2,,,,,,space,13.5561395668,2,1,4.50315719555,2015_Jul_09_1535,None,KRITL,001,31016,
,,,,,,,,"('INCREASE', 'TIMES', 'TRIPLE', 'HALF', 'x', 'y')",TIMES,4,"(1, 3, 6, 7)",7,7,2,2,triple,increase,half,UBUUxy,,,,,0,15,15,13,,,,,,space,9.55094155925,7,1,2.81115585589,2015_Jul_09_1535,None,KRITL,001,31016,
,,,,,,,,"('TRIPLE', 'HALF', 'ADD', 'x', 'y')",half,3,"(6, 3, 9)",9,9,3,3,ADD,triple,0,UUBxy,,,,,0,16,16,8,,,,,,space,4.84900405642,9,1,6.16653257233,2015_Jul_09_1535,None,KRITL,001,31016,
,,,,,,,,"('SUBTRACT', 'TRIPLE', 'x', 'y')",triple,2,"(12, 9)",9,9,3,4,0,SUBTRACT,0,BUxy,,,,,0,17,17,1,,,,,,space,1.92367541447,9,1,8.03796508836,2015_Jul_09_1535,None,KRITL,001,31016,
,,,,,,,,"('SUBTRACT', 'TRIPLE', 'DECREASE', 'x', 'y')",triple,3,"(4, 12, 3)",3,3,9,5,decrease,SUBTRACT,0,BUUxy,,,,,0,0,0,4,,,,,,space,3.36451986234,3,1,7.43001622779,2015_Jul_09_1535,None,KRITL,001,31016,
,,,,,,,,"('DECREASE', 'TRIPLE', 'DIVIDE', 'DOUBLE', 'x', 'y')",triple,4,"(6, 2, 6, 5)",5,5,3,3,DIVIDE,decrease,double,UUBUxy,,,,,0,1,1,14,,,,,,space,9.40750797655,5,1,17.9775463431,2015_Jul_09_1535,None,KRITL,001,31016,
,,,,,,,,"('INCREASE', 'ADD', 'HALF', 'TRIPLE', 'x', 'y')",ADD,4,"(6, 3, 6, 7)",7,7,3,2,half,increase,triple,UBUUxy,,,,,0,2,2,13,,,,,,space,7.07762889942,7,1,11.8137305372,2015_Jul_09_1535,None,KRITL,001,31016,
,,,,,,,,"('HALF', 'TRIPLE', 'INCREASE', 'SUBTRACT', 'x', 'y')",triple,4,"(1, 2, 6, 3)",3,3,2,3,increase,half,SUBTRACT,UUUBxy,,,,,0,3,3,17,,,,,,space,12.8746644288,3,1,5.80679531093,2015_Jul_09_1535,None,KRITL,001,31016,
,,,,,,,,"('SUBTRACT', 'TRIPLE', 'DECREASE', 'DOUBLE', 'x', 'y')",triple,4,"(4, 3, 9, 1)",1,1,8,2,decrease,SUBTRACT,double,BUUUxy,,,,,0,4,4,11,,,,,,space,9.07364071559,1,1,10.7015182466,2015_Jul_09_1535,None,KRITL,001,31016,
,,,,,,,,"('SUBTRACT', 'DOUBLE', 'TRIPLE', 'DECREASE', 'x', 'y')",double,4,"(2, 6, 12, 8)",8,8,4,3,triple,SUBTRACT,decrease,BUUUxy,,,,,0,5,5,10,,,,,,space,8.45322230624,8,1,13.4332946857,2015_Jul_09_1535,None,KRITL,001,31016,
,,,,,,,,"('DOUBLE', 'DECREASE', 'ADD', 'x', 'y')",decrease,3,"(4, 3, 6)",6,6,2,2,ADD,double,0,UUBxy,,,,,0,6,6,8,,,,,,space,3.00543738261,6,1,2.37053153504,2015_Jul_09_1535,None,KRITL,001,31016,
,,,,,,,,"('TIMES', 'HALF', 'INCREASE', 'x', 'y')",half,3,"(6, 3, 9)",9,9,3,5,increase,TIMES,0,BUUxy,,,,,0,7,7,5,,,,,,space,3.83478853983,9,1,3.21152982686,2015_Jul_09_1535,None,KRITL,001,31016,
,,,,,,,,"('DECREASE', 'TRIPLE', 'HALF', 'SUBTRACT', 'x', 'y')",triple,4,"(4, 2, 6, 5)",5,5,2,6,half,decrease,SUBTRACT,UUUBxy,,,,,0,8,8,16,,,,,,space,10.3992390394,5,1,3.3816992197,2015_Jul_09_1535,None,KRITL,001,31016,
,,,,,,,,"('DOUBLE', 'DIVIDE', 'TRIPLE', 'INCREASE', 'x', 'y')",DIVIDE,4,"(5, 15, 3, 6)",6,6,5,4,triple,double,increase,UBUUxy,,,,,0,9,9,12,,,,,,space,13.3373864937,6,1,8.70406458087,2015_Jul_09_1535,None,KRITL,001,31016,
,,,,,,,,"('DIVIDE', 'THIRD', 'x', 'y')",third,2,"(3, 1)",1,1,3,9,0,DIVIDE,0,BUxy,,,,,0,10,10,0,,,,,,space,1.69117087632,1,1,2.24562116942,2015_Jul_09_1535,None,KRITL,001,31016,
,,,,,,,,"('THIRD', 'DIVIDE', 'x', 'y')",DIVIDE,2,"(3, 1)",1,1,2,6,0,third,0,UBxy,,,,,0,11,11,3,,,,,,space,2.2366404066,1,1,4.37002793758,2015_Jul_09_1535,None,KRITL,001,31016,
,,,,,,,,"('THIRD', 'TIMES', 'HALF', 'x', 'y')",TIMES,3,"(3, 18, 6)",6,6,6,6,half,third,0,UBUxy,,,,,0,12,12,7,,,,,,space,4.01822014872,6,1,9.62095385345,2015_Jul_09_1535,None,KRITL,001,31016,
,,,,,,,,"('THIRD', 'DECREASE', 'TIMES', 'HALF', 'x', 'y')",decrease,4,"(4, 16, 15, 5)",5,5,4,8,TIMES,third,half,UUBUxy,,,,,0,13,13,15,,,,,,space,3.9049285707,5,1,6.34934859545,2015_Jul_09_1535,None,KRITL,001,31016,
,,,,,,,,"('TIMES', 'DOUBLE', 'x', 'y')",double,2,"(4, 8)",8,8,2,2,0,TIMES,0,BUxy,,,,,0,14,14,1,,,,,,space,1.31228536303,8,1,2.14155532871,2015_Jul_09_1535,None,KRITL,001,31016,
,,,,,,,,"('THIRD', 'DIVIDE', 'DECREASE', 'x', 'y')",DIVIDE,3,"(6, 3, 1)",1,1,2,7,decrease,third,0,UBUxy,,,,,0,15,15,6,,,,,,space,3.94747643083,1,1,5.65102866516,2015_Jul_09_1535,None,KRITL,001,31016,
,,,,,,,,"('INCREASE', 'SUBTRACT', 'x', 'y')",SUBTRACT,2,"(3, 4)",4,4,3,6,0,increase,0,UBxy,,,,,0,16,16,2,,,,,,space,1.20733131497,4,1,5.64626006276,2015_Jul_09_1535,None,KRITL,001,31016,
,,,,,,,,"('DOUBLE', 'THIRD', 'TIMES', 'x', 'y')",third,3,"(12, 4, 8)",8,8,6,2,TIMES,double,0,UUBxy,,,,,0,17,17,9,,,,,,space,4.51613244158,8,1,8.89120440281,2015_Jul_09_1535,None,KRITL,001,31016,
,,,,,,,,"('ADD', 'DECREASE', 'THIRD', 'DOUBLE', 'x', 'y')",decrease,4,"(18, 6, 5, 9)",9,9,4,9,third,ADD,double,BUUUxy,,,,,0,0,0,10,,,,,,space,13.9840934598,3,0,10.7197625428,2015_Jul_09_1535,None,KRITL,001,31016,
,,,,,,,,"('DECREASE', 'TRIPLE', 'SUBTRACT', 'DOUBLE', 'x', 'y')",triple,4,"(6, 3, 9, 8)",8,8,3,3,SUBTRACT,decrease,double,UUBUxy,,,,,0,1,1,15,,,,,,space,11.4913427784,8,1,7.97932870706,2015_Jul_09_1535,None,KRITL,001,31016,
,,,,,,,,"('DECREASE', 'DOUBLE', 'TIMES', 'THIRD', 'x', 'y')",double,4,"(1, 3, 6, 5)",5,5,3,3,TIMES,decrease,third,UUBUxy,,,,,0,2,2,14,,,,,,space,6.79352049614,5,1,9.62675799782,2015_Jul_09_1535,None,KRITL,001,31016,
,,,,,,,,"('ADD', 'TRIPLE', 'HALF', 'x', 'y')",triple,3,"(2, 6, 8)",8,8,2,4,half,ADD,0,BUUxy,,,,,0,3,3,5,,,,,,space,9.41858817032,8,1,2.56604843284,2015_Jul_09_1535,None,KRITL,001,31016,
,,,,,,,,"('DOUBLE', 'SUBTRACT', 'INCREASE', 'x', 'y')",SUBTRACT,3,"(4, 1, 2)",2,2,3,3,increase,double,0,UBUxy,,,,,0,4,4,6,,,,,,space,4.37427754412,2,1,2.45588762814,2015_Jul_09_1535,None,KRITL,001,31016,
,,,,,,,,"('DECREASE', 'TIMES', 'x', 'y')",TIMES,2,"(9, 8)",8,8,3,3,0,decrease,0,UBxy,,,,,0,5,5,2,,,,,,space,1.81954833012,8,1,1.20052942476,2015_Jul_09_1535,None,KRITL,001,31016,
,,,,,,,,"('DOUBLE', 'THIRD', 'ADD', 'x', 'y')",third,3,"(9, 3, 6)",6,6,4,5,ADD,double,0,UUBxy,,,,,0,6,6,8,,,,,,space,3.8870454368,6,1,3.85254043739,2015_Jul_09_1535,None,KRITL,001,31016,
,,,,,,,,"('DIVIDE', 'DECREASE', 'x', 'y')",decrease,2,"(8, 2)",2,2,4,9,0,DIVIDE,0,BUxy,,,,,0,7,7,1,,,,,,space,2.88670387247,2,1,2.29022961456,2015_Jul_09_1535,None,KRITL,001,31016,
,,,,,,,,"('INCREASE', 'HALF', 'THIRD', 'TIMES', 'x', 'y')",half,4,"(12, 4, 2, 3)",3,3,4,3,third,increase,TIMES,UUUBxy,,,,,0,8,8,16,,,,,,space,7.36620353666,9,0,15.3646748962,2015_Jul_09_1535,None,KRITL,001,31016,
,,,,,,,,"('DECREASE', 'ADD', 'THIRD', 'HALF', 'x', 'y')",ADD,4,"(3, 1, 7, 6)",6,6,6,6,third,decrease,half,UBUUxy,,,,,0,9,9,12,,,,,,space,8.57483426604,6,1,3.96188372743,2015_Jul_09_1535,None,KRITL,001,31016,
,,,,,,,,"('ADD', 'TRIPLE', 'DOUBLE', 'DECREASE', 'x', 'y')",triple,4,"(1, 2, 6, 8)",8,8,2,2,double,ADD,decrease,BUUUxy,,,,,0,10,10,11,,,,,,space,6.80567122821,8,1,2.29808139522,2015_Jul_09_1535,None,KRITL,001,31016,
,,,,,,,,"('INCREASE', 'ADD', 'HALF', 'x', 'y')",ADD,3,"(1, 4, 5)",5,5,3,2,half,increase,0,UBUxy,,,,,0,11,11,7,,,,,,space,4.65205090848,5,1,3.5092784068,2015_Jul_09_1535,None,KRITL,001,31016,
,,,,,,,,"('HALF', 'ADD', 'x', 'y')",ADD,2,"(12, 6)",6,6,8,4,0,half,0,UBxy,,,,,0,12,12,3,,,,,,space,2.29964293225,6,1,1.40110294492,2015_Jul_09_1535,None,KRITL,001,31016,
,,,,,,,,"('THIRD', 'HALF', 'INCREASE', 'SUBTRACT', 'x', 'y')",half,4,"(5, 6, 3, 1)",1,1,2,7,increase,third,SUBTRACT,UUUBxy,,,,,0,13,13,17,,,,,,space,11.1983551016,1,1,7.84290034336,2015_Jul_09_1535,None,KRITL,001,31016,
,,,,,,,,"('HALF', 'INCREASE', 'TIMES', 'x', 'y')",increase,3,"(9, 10, 5)",5,5,3,3,TIMES,half,0,UUBxy,,,,,0,14,14,9,,,,,,space,2.55895327323,5,1,3.22582723494,2015_Jul_09_1535,None,KRITL,001,31016,
,,,,,,,,"('DECREASE', 'SUBTRACT', 'DOUBLE', 'THIRD', 'x', 'y')",SUBTRACT,4,"(3, 6, 4, 3)",3,3,2,9,double,decrease,third,UBUUxy,,,,,0,15,15,13,,,,,,space,5.74148162638,3,1,7.73607154092,2015_Jul_09_1535,None,KRITL,001,31016,
,,,,,,,,"('ADD', 'DECREASE', 'x', 'y')",decrease,2,"(2, 7)",7,7,5,3,0,ADD,0,BUxy,,,,,0,16,16,0,,,,,,space,0.987412513525,7,1,3.63912325748,2015_Jul_09_1535,None,KRITL,001,31016,
,,,,,,,,"('ADD', 'DOUBLE', 'DECREASE', 'x', 'y')",double,3,"(1, 2, 7)",7,7,5,2,decrease,ADD,0,BUUxy,,,,,0,17,17,4,,,,,,space,1.80861967051,7,1,3.28361355493,2015_Jul_09_1535,None,KRITL,001,31016,
,,,,,,,,"('SUBTRACT', 'INCREASE', 'x', 'y')",increase,2,"(6, 2)",2,2,4,5,0,SUBTRACT,0,BUxy,,,,,0,0,0,1,,,,,,space,2.87884019304,2,1,1.41218698828,2015_Jul_09_1535,None,KRITL,001,31016,
,,,,,,,,"('TRIPLE', 'DOUBLE', 'SUBTRACT', 'DECREASE', 'x', 'y')",double,4,"(4, 1, 2, 6)",6,6,3,5,SUBTRACT,triple,decrease,UUBUxy,,,,,0,1,1,15,,,,,,space,8.57444615656,6,1,4.46131031227,2015_Jul_09_1535,None,KRITL,001,31016,
,,,,,,,,"('TIMES', 'THIRD', 'DOUBLE', 'x', 'y')",third,3,"(6, 2, 4)",4,4,2,3,double,TIMES,0,BUUxy,,,,,0,2,2,5,,,,,,space,3.05340617706,4,1,1.93136061251,2015_Jul_09_1535,None,KRITL,001,31016,
,,,,,,,,"('ADD', 'THIRD', 'x', 'y')",third,2,"(1, 7)",7,7,6,3,0,ADD,0,BUxy,,,,,0,3,3,0,,,,,,space,1.25165838946,7,1,1.50964621842,2015_Jul_09_1535,None,KRITL,001,31016,
,,,,,,,,"('DOUBLE', 'TIMES', 'x', 'y')",TIMES,2,"(4, 8)",8,8,2,2,0,double,0,UBxy,,,,,0,4,4,3,,,,,,space,0.884812319826,8,1,2.66190203052,2015_Jul_09_1535,None,KRITL,001,31016,
,,,,,,,,"('INCREASE', 'SUBTRACT', 'THIRD', 'x', 'y')",SUBTRACT,3,"(3, 1, 2)",2,2,2,9,third,increase,0,UBUxy,,,,,0,5,5,7,,,,,,space,2.84805740521,2,1,4.43373109016,2015_Jul_09_1535,None,KRITL,001,31016,
,,,,,,,,"('THIRD', 'TIMES', 'HALF', 'INCREASE', 'x', 'y')",TIMES,4,"(8, 4, 12, 4)",4,4,3,7,half,third,increase,UBUUxy,,,,,0,6,6,13,,,,,,space,4.85433330032,4,1,6.87409608808,2015_Jul_09_1535,None,KRITL,001,31016,
,,,,,,,,"('TRIPLE', 'DECREASE', 'HALF', 'SUBTRACT', 'x', 'y')",decrease,4,"(4, 2, 1, 3)",3,3,5,9,half,triple,SUBTRACT,UUUBxy,,,,,0,7,7,17,,,,,,space,6.89637546323,3,1,6.23816064795,2015_Jul_09_1535,None,KRITL,001,31016,
,,,,,,,,"('INCREASE', 'ADD', 'TRIPLE', 'x', 'y')",ADD,3,"(6, 8, 9)",9,9,2,2,triple,increase,0,UBUxy,,,,,0,8,8,6,,,,,,space,2.26800763339,9,1,10.2844352692,2015_Jul_09_1535,None,KRITL,001,31016,
,,,,,,,,"('DIVIDE', 'DOUBLE', 'INCREASE', 'THIRD', 'x', 'y')",double,4,"(2, 3, 6, 2)",2,2,3,6,increase,DIVIDE,third,BUUUxy,,,,,0,9,9,10,,,,,,space,4.70619620843,3,0,14.9828633382,2015_Jul_09_1535,None,KRITL,001,31016,
,,,,,,,,"('INCREASE', 'DIVIDE', 'TRIPLE', 'HALF', 'x', 'y')",DIVIDE,4,"(2, 6, 2, 3)",3,3,3,4,triple,increase,half,UBUUxy,,,,,0,10,10,12,,,,,,space,6.43983410331,3,1,9.53364111454,2015_Jul_09_1535,None,KRITL,001,31016,
,,,,,,,,"('THIRD', 'INCREASE', 'ADD', 'DOUBLE', 'x', 'y')",increase,4,"(16, 20, 21, 7)",7,7,4,8,ADD,third,double,UUBUxy,,,,,0,11,11,14,,,,,,space,4.68132570366,7,1,7.49747833813,2015_Jul_09_1535,None,KRITL,001,31016,
,,,,,,,,"('TIMES', 'INCREASE', 'HALF', 'TRIPLE', 'x', 'y')",increase,4,"(6, 3, 4, 8)",8,8,2,2,half,TIMES,triple,BUUUxy,,,,,0,12,12,11,,,,,,space,8.01492384268,1,0,3.32930023753,2015_Jul_09_1535,None,KRITL,001,31016,
,,,,,,,,"('DECREASE', 'TRIPLE', 'DIVIDE', 'x', 'y')",triple,3,"(2, 6, 5)",5,5,4,8,DIVIDE,decrease,0,UUBxy,,,,,0,13,13,8,,,,,,space,8.06939600853,5,1,3.96951678093,2015_Jul_09_1535,None,KRITL,001,31016,
,,,,,,,,"('DIVIDE', 'TRIPLE', 'HALF', 'x', 'y')",triple,3,"(4, 12, 4)",4,4,3,8,half,DIVIDE,0,BUUxy,,,,,0,14,14,4,,,,,,space,4.33583790532,1,0,10.7765381682,2015_Jul_09_1535,None,KRITL,001,31016,
,,,,,,,,"('THIRD', 'INCREASE', 'SUBTRACT', 'x', 'y')",increase,3,"(2, 3, 1)",1,1,6,8,SUBTRACT,third,0,UUBxy,,,,,0,15,15,9,,,,,,space,2.72963396268,1,1,4.28214790788,2015_Jul_09_1535,None,KRITL,001,31016,
,,,,,,,,"('DECREASE', 'TRIPLE', 'HALF', 'ADD', 'x', 'y')",triple,4,"(6, 3, 9, 8)",8,8,2,4,half,decrease,ADD,UUUBxy,,,,,0,16,16,16,,,,,,space,9.57409409329,2,0,6.46986761931,2015_Jul_09_1535,None,KRITL,001,31016,
,,,,,,,,"('DOUBLE', 'ADD', 'x', 'y')",ADD,2,"(4, 8)",8,8,2,2,0,double,0,UBxy,,,,,0,17,17,2,,,,,,space,1.29085674908,8,1,2.06571964215,2015_Jul_09_1535,None,KRITL,001,31016,
,,,,,,,,"('HALF', 'ADD', 'TRIPLE', 'x', 'y')",ADD,3,"(9, 12, 6)",6,6,3,3,triple,half,0,UBUxy,,,,,0,0,0,6,,,,,,space,5.31514841429,6,1,7.83531558482,2015_Jul_09_1535,None,KRITL,001,31016,
,,,,,,,,"('DECREASE', 'DIVIDE', 'x', 'y')",DIVIDE,2,"(2, 1)",1,1,4,8,0,decrease,0,UBxy,,,,,0,1,1,2,,,,,,space,1.2653703086,1,1,2.68584338223,2015_Jul_09_1535,None,KRITL,001,31016,
,,,,,,,,"('DOUBLE', 'ADD', 'INCREASE', 'THIRD', 'x', 'y')",ADD,4,"(1, 2, 4, 8)",8,8,2,3,increase,double,third,UBUUxy,,,,,0,2,2,12,,,,,,space,3.87935568922,8,1,6.34414463851,2015_Jul_09_1535,None,KRITL,001,31016,
,,,,,,,,"('THIRD', 'TIMES', 'DOUBLE', 'DECREASE', 'x', 'y')",TIMES,4,"(1, 2, 6, 2)",2,2,3,2,double,third,decrease,UBUUxy,,,,,0,3,3,13,,,,,,space,8.10684770046,4,0,10.2048234767,2015_Jul_09_1535,None,KRITL,001,31016,
,,,,,,,,"('HALF', 'TRIPLE', 'INCREASE', 'DIVIDE', 'x', 'y')",triple,4,"(3, 4, 12, 6)",6,6,3,9,increase,half,DIVIDE,UUUBxy,,,,,0,4,4,16,,,,,,space,13.3288340862,6,1,3.17728275055,2015_Jul_09_1535,None,KRITL,001,31016,
,,,,,,,,"('DIVIDE', 'DECREASE', 'TRIPLE', 'x', 'y')",decrease,3,"(9, 8, 4)",4,4,2,3,triple,DIVIDE,0,BUUxy,,,,,0,5,5,5,,,,,,space,2.19647334801,4,1,3.33995277595,2015_Jul_09_1535,None,KRITL,001,31016,
,,,,,,,,"('THIRD', 'HALF', 'ADD', 'x', 'y')",half,3,"(6, 3, 1)",1,1,3,3,ADD,third,0,UUBxy,,,,,0,6,6,9,,,,,,space,2.93830143823,1,1,1.8147860271,2015_Jul_09_1535,None,KRITL,001,31016,
,,,,,,,,"('ADD', 'DOUBLE', 'DECREASE', 'THIRD', 'x', 'y')",double,4,"(2, 1, 2, 8)",8,8,6,6,decrease,ADD,third,BUUUxy,,,,,0,7,7,10,,,,,,space,8.33358379055,8,1,11.223335495,2015_Jul_09_1535,None,KRITL,001,31016,
,,,,,,,,"('THIRD', 'DOUBLE', 'INCREASE', 'TIMES', 'x', 'y')",double,4,"(8, 9, 18, 6)",6,6,4,2,increase,third,TIMES,UUUBxy,,,,,0,8,8,17,,,,,,space,15.2364367278,6,1,8.05918197436,2015_Jul_09_1535,None,KRITL,001,31016,
,,,,,,,,"('THIRD', 'INCREASE', 'DIVIDE', 'DOUBLE', 'x', 'y')",increse,4,"(18, 2, 3, 1)",1,1,9,9,DIVIDE,third,double,UUBUxy,,,,,0,9,9,15,,,,,,space,3.6301648923,1,1,4.08562871465,2015_Jul_09_1535,None,KRITL,001,31016,
,,,,,,,,"('INCREASE', 'SUBTRACT', 'HALF', 'x', 'y')",SUBTRACT,3,"(4, 2, 3)",3,3,2,8,half,increase,0,UBUxy,,,,,0,10,10,7,,,,,,space,4.40069558742,3,1,7.71775060272,2015_Jul_09_1535,None,KRITL,001,31016,
,,,,,,,,"('THIRD', 'DOUBLE', 'ADD', 'DECREASE', 'x', 'y')",double,4,"(5, 12, 24, 8)",8,8,7,6,ADD,third,decrease,UUBUxy,,,,,0,11,11,14,,,,,,space,13.7001558387,8,1,8.83058057891,2015_Jul_09_1535,None,KRITL,001,31016,
,,,,,,,,"('SUBTRACT', 'DECREASE', 'x', 'y')",decrease,2,"(5, 3)",3,3,2,6,0,SUBTRACT,0,BUxy,,,,,0,12,12,1,,,,,,space,1.9366114646,3,1,2.81746359769,2015_Jul_09_1535,None,KRITL,001,31016,
,,,,,,,,"('INCREASE', 'TRIPLE', 'DIVIDE', 'x', 'y')",triple,3,"(2, 6, 7)",7,7,3,6,DIVIDE,increase,0,UUBxy,,,,,0,13,13,8,,,,,,space,4.23543478237,7,1,3.15969393592,2015_Jul_09_1535,None,KRITL,001,31016,
,,,,,,,,"('SUBTRACT', 'DECREASE', 'TRIPLE', 'DOUBLE', 'x', 'y')",decrease,4,"(6, 18, 17, 8)",8,8,9,3,triple,SUBTRACT,double,BUUUxy,,,,,0,14,14,11,,,,,,space,6.96616028118,8,1,10.5423034106,2015_Jul_09_1535,None,KRITL,001,31016,
,,,,,,,,"('DIVIDE', 'INCREASE', 'x', 'y')",increase,2,"(4, 2)",2,2,2,3,0,DIVIDE,0,BUxy,,,,,0,15,15,0,,,,,,space,1.58234553225,2,1,1.27399515861,2015_Jul_09_1535,None,KRITL,001,31016,
,,,,,,,,"('INCREASE', 'ADD', 'x', 'y')",ADD,2,"(5, 6)",6,6,2,3,0,increase,0,UBxy,,,,,0,16,16,3,,,,,,space,1.45678948404,6,1,2.18271838332,2015_Jul_09_1535,None,KRITL,001,31016,
,,,,,,,,"('ADD', 'HALF', 'THIRD', 'x', 'y')",half,3,"(2, 1, 9)",9,9,8,6,third,ADD,0,BUUxy,,,,,0,17,17,4,,,,,,space,3.11037848203,9,1,1.66412604845,2015_Jul_09_1535,None,KRITL,001,31016,
,,,,,,,,"('THIRD', 'ADD', 'x', 'y')",ADD,2,"(9, 3)",3,3,5,4,0,third,0,UBxy,,,,,0,0,0,2,,,,,,space,2.54684453676,3,1,1.34128613677,2015_Jul_09_1535,None,KRITL,001,31016,
,,,,,,,,"('THIRD', 'SUBTRACT', 'x', 'y')",SUBTRACT,2,"(3, 1)",1,1,2,5,0,third,0,UBxy,,,,,0,1,1,3,,,,,,space,1.21808604273,1,1,1.47726829705,2015_Jul_09_1535,None,KRITL,001,31016,
,,,,,,,,"('INCREASE', 'DIVIDE', 'TRIPLE', 'DOUBLE', 'x', 'y')",DIVIDE,4,"(6, 18, 3, 4)",4,4,6,3,triple,increase,double,UBUUxy,,,,,0,2,2,12,,,,,,space,3.80150771266,4,1,3.6321715829,2015_Jul_09_1535,None,KRITL,001,31016,
,,,,,,,,"('SUBTRACT', 'HALF', 'INCREASE', 'TRIPLE', 'x', 'y')",half,4,"(15, 16, 8, 3)",3,3,5,5,increase,SUBTRACT,triple,BUUUxy,,,,,0,3,3,10,,,,,,space,4.94617876623,3,1,4.69738902745,2015_Jul_09_1535,None,KRITL,001,31016,
,,,,,,,,"('TRIPLE', 'SUBTRACT', 'DOUBLE', 'DECREASE', 'x', 'y')",SUBTRACT,4,"(2, 4, 1, 3)",3,3,3,3,double,triple,decrease,UBUUxy,,,,,0,4,4,13,,,,,,space,7.96672827192,2,0,11.1656020194,2015_Jul_09_1535,None,KRITL,001,31016,
,,,,,,,,"('TRIPLE', 'HALF', 'DIVIDE', 'x', 'y')",half,3,"(2, 1, 3)",3,3,2,4,DIVIDE,triple,0,UUBxy,,,,,0,5,5,9,,,,,,space,4.2575573739,3,1,1.44515389821,2015_Jul_09_1535,None,KRITL,001,31016,
,,,,,,,,"('THIRD', 'DECREASE', 'TIMES', 'x', 'y')",decrease,3,"(25, 24, 8)",8,8,5,5,TIMES,thid,0,UUBxy,,,,,0,6,6,8,,,,,,space,11.752209407,8,1,4.93930408364,2015_Jul_09_1535,None,KRITL,001,31016,
,,,,,,,,"('TIMES', 'DECREASE', 'x', 'y')",decrease,2,"(2, 4)",4,4,2,3,0,TIMES,0,BUxy,,,,,0,7,7,0,,,,,,space,2.55627850234,4,1,2.28519573982,2015_Jul_09_1535,None,KRITL,001,31016,
,,,,,,,,"('TRIPLE', 'DECREASE', 'HALF', 'TIMES', 'x', 'y')",decrease,4,"(6, 3, 2, 6)",6,6,2,3,half,triple,TIMES,UUUBxy,,,,,0,8,8,17,,,,,,space,5.92267241914,6,1,8.34253130684,2015_Jul_09_1535,None,KRITL,001,31016,
,,,,,,,,"('THIRD', 'TIMES', 'DECREASE', 'x', 'y')",TIMES,3,"(3, 15, 5)",5,5,5,4,decrease,third,0,UBUxy,,,,,0,9,9,7,,,,,,space,3.98730962424,5,1,3.9399942116,2015_Jul_09_1535,None,KRITL,001,31016,
,,,,,,,,"('THIRD', 'DOUBLE', 'ADD', 'INCREASE', 'x', 'y')",double,4,"(10, 12, 24, 8)",8,8,2,9,ADD,third,increase,UUBUxy,,,,,0,10,10,14,,,,,,space,8.1170561352,8,1,9.6441070874,2015_Jul_09_1535,None,KRITL,001,31016,
,,,,,,,,"('THIRD', 'ADD', 'INCREASE', 'x', 'y')",ADD,3,"(8, 15, 5)",5,5,7,7,increase,third,0,UBUxy,,,,,0,11,11,6,,,,,,space,6.08054654495,5,1,3.76463066079,2015_Jul_09_1535,None,KRITL,001,31016,
,,,,,,,,"('TIMES', 'DECREASE', 'HALF', 'x', 'y')",decrease,3,"(4, 3, 9)",9,9,3,8,half,TIMES,0,BUUxy,,,,,0,12,12,4,,,,,,space,2.18275617939,9,1,3.85454852786,2015_Jul_09_1535,None,KRITL,001,31016,
,,,,,,,,"('TRIPLE', 'HALF', 'ADD', 'DECREASE', 'x', 'y')",half,4,"(1, 4, 2, 6)",6,6,3,2,ADD,triple,decrease,UUBUxy,,,,,0,13,13,15,,,,,,space,7.23014473441,6,1,5.41736119837,2015_Jul_09_1535,None,KRITL,001,31016,
,,,,,,,,"('TIMES', 'INCREASE', 'THIRD', 'DOUBLE', 'x', 'y')",increase,4,"(6, 2, 3, 9)",9,9,3,3,third,TIMES,double,BUUUxy,,,,,0,14,14,11,,,,,,space,4.82997934165,9,1,8.24864765361,2015_Jul_09_1535,None,KRITL,001,31016,
,,,,,,,,"('THIRD', 'INCREASE', 'HALF', 'DIVIDE', 'x', 'y')",increase,4,"(4, 2, 3, 1)",1,1,2,8,half,third,DIVIDE,UUUBxy,,,,,0,15,15,16,,,,,,space,4.13467119707,1,1,3.47154954381,2015_Jul_09_1535,None,KRITL,001,31016,
,,,,,,,,"('TIMES', 'INCREASE', 'x', 'y')",increase,2,"(3, 6)",6,6,2,2,0,TIMES,0,BUxy,,,,,0,16,16,1,,,,,,space,1.98034500101,6,1,2.73285992607,2015_Jul_09_1535,None,KRITL,001,31016,
,,,,,,,,"('TIMES', 'THIRD', 'HALF', 'x', 'y')",third,3,"(3, 1, 5)",5,5,5,6,half,TIMES,0,BUUxy,,,,,0,17,17,5,,,,,,space,5.03864751713,5,1,1.61774468832,2015_Jul_09_1535,None,KRITL,001,31016,
