operationc,operationb,operationa,correctresponse,valuey,operationd,condition,valuex,Rule,Operatora,Length,Intermediate,CorrectResponse,Result,Y,X,Operatorc,Operatorb,Operatord,Structure,practice_trials.thisRepN,practice_trials.thisTrialN,practice_trials.thisN,practice_trials.thisIndex,block.thisRepN,block.thisTrialN,block.thisN,block.thisIndex,practice_encoding.keys,practice_encoding.rt,practice_execution.keys,practice_execution.corr,practice_execution.rt,encoding.keys,encoding.rt,execution.keys,execution.corr,execution.rt,date,frameRate,expName,session,participant,
0,ADD,decrease,7,5,0,2,3,,,,,,,,,,,,,0,0,0,0,,,,,['space'],[3.0000427652848884],7,1,2.5333948012,,,,,,2017_Apr_14_1720,59.9900458925,KRITL,001,31035,
0,decrease,TIMES,8,3,0,2,3,,,,,,,,,,,,,0,1,1,1,,,,,['space'],[1.1667690181639045],8,1,1.91670301708,,,,,,2017_Apr_14_1720,59.9900458925,KRITL,001,31035,
increase,DIVIDE,double,9,8,triple,4,8,,,,,,,,,,,,,0,2,2,5,,,,,['space'],[3.66670087876264],9,1,4.41683387873,,,,,,2017_Apr_14_1720,59.9900458925,KRITL,001,31035,
increase,DIVIDE,triple,3,3,0,3,2,,,,,,,,,,,,,0,3,3,4,,,,,['space'],[1.7167498877970502],3,1,2.30001693498,,,,,,2017_Apr_14_1720,59.9900458925,KRITL,001,31035,
0,ADD,half,7,5,0,2,4,,,,,,,,,,,,,0,4,4,2,,,,,['space'],[1.0333557423437014],7,1,1.51671578968,,,,,,2017_Apr_14_1720,59.9900458925,KRITL,001,31035,
ADD,triple ,half,8,2,0,3,4,,,,,,,,,,,,,0,5,5,3,,,,,['space'],[1.3833458492299542],8,1,2.15006520273,,,,,,2017_Apr_14_1720,59.9900458925,KRITL,001,31035,
,,,,,,,,"('SUBTRACT', 'HALF', 'TRIPLE', 'x', 'y')",half,3,"(12, 6, 2)",2,2,4,4,triple,SUBTRACT,0,BUUxy,,,,,0,0,0,5,,,,,,space,1.75013242965,2,1,2.95001171762,2017_Apr_14_1720,59.9900458925,KRITL,001,31035,
,,,,,,,,"('ADD', 'DOUBLE', 'x', 'y')",double,2,"(4, 8)",8,8,4,2,0,ADD,0,BUxy,,,,,0,1,1,0,,,,,,space,1.4168019474,8,1,1.76689440582,2017_Apr_14_1720,59.9900458925,KRITL,001,31035,
,,,,,,,,"('INCREASE', 'DIVIDE', 'THIRD', 'x', 'y')",DIVIDE,3,"(3, 1, 2)",2,2,3,9,third,increase,0,UBUxy,,,,,0,2,2,7,,,,,,space,1.81679601723,2,1,2.61668408639,2017_Apr_14_1720,59.9900458925,KRITL,001,31035,
,,,,,,,,"('ADD', 'THIRD', 'INCREASE', 'HALF', 'x', 'y')",third,4,"(2, 3, 1, 7)",7,7,6,4,increase,ADD,half,BUUUxy,,,,,0,3,3,10,,,,,,space,1.93338117329,7,1,3.73339326167,2017_Apr_14_1720,59.9900458925,KRITL,001,31035,
,,,,,,,,"('DECREASE', 'ADD', 'DOUBLE', 'THIRD', 'x', 'y')",ADD,4,"(3, 6, 10, 9)",9,9,4,9,double,decrease ,third,UBUUxy,,,,,0,4,4,12,,,,,,space,2.88339089532,9,1,4.11671943893,2017_Apr_14_1720,59.9900458925,KRITL,001,31035,
,,,,,,,,"('DIVIDE', 'INCREASE', 'DOUBLE', 'THIRD', 'x', 'y')",increase,4,"(2, 4, 5, 1)",1,1,5,6,double,DIVIDE,third,BUUUxy,,,,,0,5,5,11,,,,,,space,2.75003178883,1,1,4.08341701073,2017_Apr_14_1720,59.9900458925,KRITL,001,31035,
,,,,,,,,"('DECREASE', 'TIMES', 'DOUBLE', 'THIRD', 'x', 'y')",TIMES,4,"(1, 2, 8, 7)",7,7,4,3,double,decrease,third,UBUUxy,,,,,0,6,6,13,,,,,,space,3.70004065556,7,1,2.9833973957,2017_Apr_14_1720,59.9900458925,KRITL,001,31035,
,,,,,,,,"('DIVIDE', 'DOUBLE', 'x', 'y')",double,2,"(12, 2)",2,2,6,6,0,DIVIDE,0,BUxy,,,,,0,7,7,1,,,,,,space,1.26675214013,2,1,1.88343765202,2017_Apr_14_1720,59.9900458925,KRITL,001,31035,
,,,,,,,,"('DECREASE', 'THIRD', 'TIMES', 'HALF', 'x', 'y')",third,4,"(2, 12, 4, 3)",3,3,6,4,TIMES,decrease,half,UUBUxy,,,,,0,8,8,14,,,,,,space,3.75000669993,3,1,8.38334271312,2017_Apr_14_1720,59.9900458925,KRITL,001,31035,
,,,,,,,,"('DECREASE', 'HALF', 'TRIPLE', 'DIVIDE', 'x', 'y')",half,4,"(4, 12, 6, 5)",5,5,2,8,triple,decrease,DIVIDE,UUUBxy,,,,,0,9,9,16,,,,,,space,3.11678757821,5,1,3.90007104736,2017_Apr_14_1720,59.9900458925,KRITL,001,31035,
,,,,,,,,"('DOUBLE', 'SUBTRACT', 'x', 'y')",SUBTRACT,2,"(1, 2)",2,2,7,8,0,double,0,UBxy,,,,,0,10,10,2,,,,,,space,1.06676793471,2,1,1.3168136935,2017_Apr_14_1720,59.9900458925,KRITL,001,31035,
,,,,,,,,"('DOUBLE', 'TRIPLE', 'SUBTRACT', 'x', 'y')",triple,3,"(1, 3, 6)",6,6,3,4,SUBTRACT,double,0,UUBxy,,,,,0,11,11,9,,,,,,space,1.31677092833,6,1,3.90009471076,2017_Apr_14_1720,59.9900458925,KRITL,001,31035,
,,,,,,,,"('DOUBLE', 'DECREASE', 'SUBTRACT', 'x', 'y')",decrease,3,"(5, 4, 8)",8,8,2,7,SUBTRACT,double,0,UUBxy,,,,,0,12,12,8,,,,,,space,1.73334679008,8,1,3.08338621969,2017_Apr_14_1720,59.9900458925,KRITL,001,31035,
,,,,,,,,"('HALF', 'SUBTRACT', 'TRIPLE', 'x', 'y')",SUBTRACT,3,"(9, 2, 1)",1,1,7,3,triple,half,0,UBUxy,,,,,0,13,13,6,,,,,,space,2.48344472249,1,1,1.8169827587,2017_Apr_14_1720,59.9900458925,KRITL,001,31035,
,,,,,,,,"('HALF', 'TIMES', 'x', 'y')",TIMES,2,"(16, 8)",8,8,4,4,0,half,0,UBxy,,,,,0,14,14,3,,,,,,space,1.1167593532,8,1,3.58344694623,2017_Apr_14_1720,59.9900458925,KRITL,001,31035,
,,,,,,,,"('DOUBLE', 'DECREASE', 'TRIPLE', 'DIVIDE', 'x', 'y')",decrease,4,"(1, 3, 2, 4)",4,4,4,4,triple,double,DIVIDE,UUUBxy,,,,,0,15,15,17,,,,,,space,3.400030563,4,1,2.71674190497,2017_Apr_14_1720,59.9900458925,KRITL,001,31035,
,,,,,,,,"('DIVIDE', 'DOUBLE', 'THIRD', 'x', 'y')",double,3,"(2, 4, 1)",1,1,4,6,third,DIVIDE,0,BUUxy,,,,,0,16,16,4,,,,,,space,2.45002625778,1,1,1.86677745706,2017_Apr_14_1720,59.9900458925,KRITL,001,31035,
,,,,,,,,"('DOUBLE', 'TRIPLE', 'DIVIDE', 'DECREASE', 'x', 'y')",triple,4,"(8, 1, 3, 6)",6,6,8,9,DIVIDE,double,decrease,UUBUxy,,,,,0,17,17,15,,,,,,space,2.46677226829,6,1,3.60001847462,2017_Apr_14_1720,59.9900458925,KRITL,001,31035,
,,,,,,,,"('TRIPLE', 'HALF', 'ADD', 'x', 'y')",half,3,"(6, 3, 9)",9,9,3,3,ADD,triple,0,UUBxy,,,,,0,0,0,8,,,,,,space,1.78340919886,9,1,3.86673241109,2017_Apr_14_1720,59.9900458925,KRITL,001,31035,
,,,,,,,,"('TRIPLE', 'DOUBLE', 'SUBTRACT', 'INCREASE', 'x', 'y')",double,4,"(5, 1, 2, 6)",6,6,4,4,SUBTRACT,triple,increase,UUBUxy,,,,,0,1,1,14,,,,,,space,3.28354091581,6,1,3.30006426189,2017_Apr_14_1720,59.9900458925,KRITL,001,31035,
,,,,,,,,"('ADD', 'HALF', 'x', 'y')",half,2,"(2, 7)",7,7,5,4,0,ADD,0,BUxy,,,,,0,2,2,0,,,,,,space,0.883419690654,7,1,1.51677138451,2017_Apr_14_1720,59.9900458925,KRITL,001,31035,
,,,,,,,,"('HALF', 'SUBTRACT', 'DECREASE', 'TRIPLE', 'x', 'y')",SUBTRACT,4,"(15, 14, 10, 5)",5,5,4,5,decrease,half,triple,UBUUxy,,,,,0,3,3,12,,,,,,space,3.06675282435,5,1,6.08335143724,2017_Apr_14_1720,59.9900458925,KRITL,001,31035,
,,,,,,,,"('TIMES', 'HALF', 'INCREASE', 'THIRD', 'x', 'y')",half,4,"(1, 2, 1, 9)",9,9,9,3,increase,TIMES,third,BUUUxy,,,,,0,4,4,11,,,,,,space,4.43334895698,9,1,3.05005898746,2017_Apr_14_1720,59.9900458925,KRITL,001,31035,
,,,,,,,,"('DOUBLE', 'DIVIDE', 'x', 'y')",DIVIDE,2,"(1, 2)",2,2,8,8,0,double,0,UBxy,,,,,0,5,5,2,,,,,,space,0.93346071674,2,1,2.70012561569,2017_Apr_14_1720,59.9900458925,KRITL,001,31035,
,,,,,,,,"('INCREASE', 'TIMES', 'TRIPLE', 'HALF', 'x', 'y')",TIMES,4,"(1, 3, 6, 7)",7,7,2,2,triple,increase,half,UBUUxy,,,,,0,6,6,13,,,,,,space,3.18331374682,7,1,3.10002360644,2017_Apr_14_1720,59.9900458925,KRITL,001,31035,
,,,,,,,,"('INCREASE', 'DIVIDE', 'x', 'y')",DIVIDE,2,"(4, 5)",5,5,2,8,0,increase,0,UBxy,,,,,0,7,7,3,,,,,,space,1.33338607708,5,1,1.33342570625,2017_Apr_14_1720,59.9900458925,KRITL,001,31035,
,,,,,,,,"('SUBTRACT', 'INCREASE', 'HALF', 'x', 'y')",increase,3,"(4, 5, 3)",3,3,2,8,half,SUBTRACT,0,BUUxy,,,,,0,8,8,5,,,,,,space,2.65002072696,3,1,4.06676879001,2017_Apr_14_1720,59.9900458925,KRITL,001,31035,
,,,,,,,,"('DECREASE', 'THIRD', 'DOUBLE', 'ADD', 'x', 'y')",third,4,"(9, 18, 6, 5)",5,5,4,5,double,decrease,ADD,UUUBxy,,,,,0,9,9,16,,,,,,space,4.71668260382,5,1,4.78343286237,2017_Apr_14_1720,59.9900458925,KRITL,001,31035,
,,,,,,,,"('HALF', 'TIMES', 'DECREASE', 'x', 'y')",TIMES,3,"(8, 16, 8)",8,8,2,9,decrease,half,0,UBUxy,,,,,0,10,10,6,,,,,,space,1.38331705402,8,1,3.68341609836,2017_Apr_14_1720,59.9900458925,KRITL,001,31035,
,,,,,,,,"('TRIPLE', 'INCREASE', 'SUBTRACT', 'x', 'y')",increase,3,"(1, 2, 6)",6,6,2,3,SUBTRACT,triple,0,UUBxy,,,,,0,11,11,9,,,,,,space,3.78345367475,6,1,2.65004039882,2017_Apr_14_1720,59.9900458925,KRITL,001,31035,
,,,,,,,,"('DIVIDE', 'TRIPLE', 'DECREASE', 'x', 'y')",triple,3,"(6, 18, 9)",9,9,2,7,decrease,DIVIDE,0,BUUxy,,,,,0,12,12,4,,,,,,space,2.4333318508,9,1,4.00001967209,2017_Apr_14_1720,59.9900458925,KRITL,001,31035,
,,,,,,,,"('INCREASE', 'DIVIDE', 'TRIPLE', 'x', 'y')",DIVIDE,3,"(6, 2, 3)",3,3,3,2,triple,increase,0,UBUxy,,,,,0,13,13,7,,,,,,space,1.51670552604,3,1,2.96670698002,2017_Apr_14_1720,59.9900458925,KRITL,001,31035,
,,,,,,,,"('DIVIDE', 'DOUBLE', 'INCREASE', 'TRIPLE', 'x', 'y')",double,4,"(9, 10, 20, 5)",5,5,4,3,increase,DIVIDE,triple,BUUUxy,,,,,0,14,14,10,,,,,,space,2.8499889666,5,1,3.77356891846,2017_Apr_14_1720,59.9900458925,KRITL,001,31035,
,,,,,,,,"('SUBTRACT', 'TRIPLE', 'x', 'y')",triple,2,"(12, 9)",9,9,3,4,0,SUBTRACT,0,BUxy,,,,,0,15,15,1,,,,,,space,1.03348147206,9,1,2.08337766665,2017_Apr_14_1720,59.9900458925,KRITL,001,31035,
,,,,,,,,"('TRIPLE', 'INCREASE', 'DIVIDE', 'DOUBLE', 'x', 'y')",increase,4,"(16, 2, 3, 9)",9,9,8,8,DIVIDE,triple,double,UUBUxy,,,,,0,16,16,15,,,,,,space,2.90011153172,9,1,2.75006372028,2017_Apr_14_1720,59.9900458925,KRITL,001,31035,
,,,,,,,,"('THIRD', 'INCREASE', 'HALF', 'TIMES', 'x', 'y')",increase,4,"(28, 14, 15, 5)",5,5,4,7,half,third,TIMES,UUUBxy,,,,,0,17,17,17,,,,,,space,2.48345127993,5,1,3.4334048368,2017_Apr_14_1720,59.9900458925,KRITL,001,31035,
,,,,,,,,"('INCREASE', 'SUBTRACT', 'x', 'y')",SUBTRACT,2,"(3, 4)",4,4,3,6,0,increase,0,UBxy,,,,,0,0,0,2,,,,,,space,1.01673603186,4,1,1.48345612653,2017_Apr_14_1720,59.9900458925,KRITL,001,31035,
,,,,,,,,"('DECREASE', 'TRIPLE', 'DIVIDE', 'DOUBLE', 'x', 'y')",triple,4,"(6, 2, 6, 5)",5,5,3,3,DIVIDE,decrease,double,UUBUxy,,,,,0,1,1,14,,,,,,space,4.13330237125,5,1,3.38339431654,2017_Apr_14_1720,59.9900458925,KRITL,001,31035,
,,,,,,,,"('INCREASE', 'ADD', 'HALF', 'TRIPLE', 'x', 'y')",ADD,4,"(6, 3, 6, 7)",7,7,3,2,half,increase,triple,UBUUxy,,,,,0,2,2,13,,,,,,space,2.56674769253,7,1,4.65006634314,2017_Apr_14_1720,59.9900458925,KRITL,001,31035,
,,,,,,,,"('THIRD', 'DIVIDE', 'x', 'y')",DIVIDE,2,"(3, 1)",1,1,2,6,0,third,0,UBxy,,,,,0,3,3,3,,,,,,space,0.766794905416,1,1,3.80007509573,2017_Apr_14_1720,59.9900458925,KRITL,001,31035,
,,,,,,,,"('DIVIDE', 'THIRD', 'x', 'y')",third,2,"(3, 1)",1,1,3,9,0,DIVIDE,0,BUxy,,,,,0,4,4,0,,,,,,space,0.850366726052,1,1,1.0501171482,2017_Apr_14_1720,59.9900458925,KRITL,001,31035,
,,,,,,,,"('SUBTRACT', 'TRIPLE', 'DECREASE', 'DOUBLE', 'x', 'y')",triple,4,"(4, 3, 9, 1)",1,1,8,2,decrease,SUBTRACT,double,BUUUxy,,,,,0,5,5,11,,,,,,space,2.58339192171,1,1,3.53334034677,2017_Apr_14_1720,59.9900458925,KRITL,001,31035,
,,,,,,,,"('DECREASE', 'TRIPLE', 'HALF', 'SUBTRACT', 'x', 'y')",triple,4,"(4, 2, 6, 5)",5,5,2,6,half,decrease,SUBTRACT,UUUBxy,,,,,0,6,6,16,,,,,,space,2.73345313303,5,1,4.31669737201,2017_Apr_14_1720,59.9900458925,KRITL,001,31035,
,,,,,,,,"('DOUBLE', 'DECREASE', 'ADD', 'x', 'y')",decrease,3,"(4, 3, 6)",6,6,2,2,ADD,double,0,UUBxy,,,,,0,7,7,8,,,,,,space,1.43339115195,6,1,2.25004091207,2017_Apr_14_1720,59.9900458925,KRITL,001,31035,
,,,,,,,,"('THIRD', 'DIVIDE', 'DECREASE', 'x', 'y')",DIVIDE,3,"(6, 3, 1)",1,1,2,7,decrease,third,0,UBUxy,,,,,0,8,8,6,,,,,,space,2.26669626019,1,1,2.36674353003,2017_Apr_14_1720,59.9900458925,KRITL,001,31035,
,,,,,,,,"('TIMES', 'HALF', 'INCREASE', 'x', 'y')",half,3,"(6, 3, 9)",9,9,3,5,increase,TIMES,0,BUUxy,,,,,0,9,9,5,,,,,,space,1.56677563256,9,1,3.81670221884,2017_Apr_14_1720,59.9900458925,KRITL,001,31035,
,,,,,,,,"('SUBTRACT', 'TRIPLE', 'DECREASE', 'x', 'y')",triple,3,"(4, 12, 3)",3,3,9,5,decrease,SUBTRACT,0,BUUxy,,,,,0,10,10,4,,,,,,space,1.20011620736,3,1,4.90006049862,2017_Apr_14_1720,59.9900458925,KRITL,001,31035,
,,,,,,,,"('THIRD', 'DECREASE', 'TIMES', 'HALF', 'x', 'y')",decrease,4,"(4, 16, 15, 5)",5,5,4,8,TIMES,third,half,UUBUxy,,,,,0,11,11,15,,,,,,space,2.63342296926,5,1,3.41671071493,2017_Apr_14_1720,59.9900458925,KRITL,001,31035,
,,,,,,,,"('DOUBLE', 'DIVIDE', 'TRIPLE', 'INCREASE', 'x', 'y')",DIVIDE,4,"(5, 15, 3, 6)",6,6,5,4,triple,double,increase,UBUUxy,,,,,0,12,12,12,,,,,,space,2.14992493275,6,1,10.2166344217,2017_Apr_14_1720,59.9900458925,KRITL,001,31035,
,,,,,,,,"('TIMES', 'DOUBLE', 'x', 'y')",double,2,"(4, 8)",8,8,2,2,0,TIMES,0,BUxy,,,,,0,13,13,1,,,,,,space,0.666787549737,8,1,1.46675829822,2017_Apr_14_1720,59.9900458925,KRITL,001,31035,
,,,,,,,,"('THIRD', 'TIMES', 'HALF', 'x', 'y')",TIMES,3,"(3, 18, 6)",6,6,6,6,half,third,0,UBUxy,,,,,0,14,14,7,,,,,,space,2.31670706556,6,1,2.50010292162,2017_Apr_14_1720,59.9900458925,KRITL,001,31035,
,,,,,,,,"('SUBTRACT', 'DOUBLE', 'TRIPLE', 'DECREASE', 'x', 'y')",double,4,"(2, 6, 12, 8)",8,8,4,3,triple,SUBTRACT,decrease,BUUUxy,,,,,0,15,15,10,,,,,,space,2.06675938179,8,1,9.61667895445,2017_Apr_14_1720,59.9900458925,KRITL,001,31035,
,,,,,,,,"('DOUBLE', 'THIRD', 'TIMES', 'x', 'y')",third,3,"(12, 4, 8)",8,8,6,2,TIMES,double,0,UUBxy,,,,,0,16,16,9,,,,,,space,1.95010295021,8,1,4.60013051948,2017_Apr_14_1720,59.9900458925,KRITL,001,31035,
,,,,,,,,"('HALF', 'TRIPLE', 'INCREASE', 'SUBTRACT', 'x', 'y')",triple,4,"(1, 2, 6, 3)",3,3,2,3,increase,half,SUBTRACT,UUUBxy,,,,,0,17,17,17,,,,,,space,4.2000754379,3,1,3.35009359883,2017_Apr_14_1720,59.9900458925,KRITL,001,31035,
,,,,,,,,"('DOUBLE', 'THIRD', 'ADD', 'x', 'y')",third,3,"(9, 3, 6)",6,6,4,5,ADD,double,0,UUBxy,,,,,0,0,0,8,,,,,,space,1.40040119493,6,1,2.48338028952,2017_Apr_14_1720,59.9900458925,KRITL,001,31035,
,,,,,,,,"('ADD', 'DECREASE', 'x', 'y')",decrease,2,"(2, 7)",7,7,5,3,0,ADD,0,BUxy,,,,,0,1,1,0,,,,,,space,0.716772410786,7,1,1.4668931514,2017_Apr_14_1720,59.9900458925,KRITL,001,31035,
,,,,,,,,"('DOUBLE', 'SUBTRACT', 'INCREASE', 'x', 'y')",SUBTRACT,3,"(4, 1, 2)",2,2,3,3,increase,double,0,UBUxy,,,,,0,2,2,6,,,,,,space,1.9499301787,2,1,1.65005950071,2017_Apr_14_1720,59.9900458925,KRITL,001,31035,
,,,,,,,,"('ADD', 'TRIPLE', 'HALF', 'x', 'y')",triple,3,"(2, 6, 8)",8,8,2,4,half,ADD,0,BUUxy,,,,,0,3,3,5,,,,,,space,1.18342237058,8,1,2.70001357084,2017_Apr_14_1720,59.9900458925,KRITL,001,31035,
,,,,,,,,"('INCREASE', 'ADD', 'HALF', 'x', 'y')",ADD,3,"(1, 4, 5)",5,5,3,2,half,increase,0,UBUxy,,,,,0,4,4,7,,,,,,space,1.84995617985,5,1,2.95016880857,2017_Apr_14_1720,59.9900458925,KRITL,001,31035,
,,,,,,,,"('DECREASE', 'TRIPLE', 'SUBTRACT', 'DOUBLE', 'x', 'y')",triple,4,"(6, 3, 9, 8)",8,8,3,3,SUBTRACT,decrease,double,UUBUxy,,,,,0,5,5,15,,,,,,space,3.33348871372,8,1,4.76678407157,2017_Apr_14_1720,59.9900458925,KRITL,001,31035,
,,,,,,,,"('DECREASE', 'ADD', 'THIRD', 'HALF', 'x', 'y')",ADD,4,"(3, 1, 7, 6)",6,6,6,6,third,decrease,half,UBUUxy,,,,,0,6,6,12,,,,,,space,2.08331351879,6,1,3.51676682278,2017_Apr_14_1720,59.9900458925,KRITL,001,31035,
,,,,,,,,"('HALF', 'ADD', 'x', 'y')",ADD,2,"(12, 6)",6,6,8,4,0,half,0,UBxy,,,,,0,7,7,3,,,,,,space,0.933376896894,6,1,1.41685383581,2017_Apr_14_1720,59.9900458925,KRITL,001,31035,
,,,,,,,,"('ADD', 'DOUBLE', 'DECREASE', 'x', 'y')",double,3,"(1, 2, 7)",7,7,5,2,decrease,ADD,0,BUUxy,,,,,0,8,8,4,,,,,,space,1.36676548293,7,1,3.38340458018,2017_Apr_14_1720,59.9900458925,KRITL,001,31035,
,,,,,,,,"('DECREASE', 'SUBTRACT', 'DOUBLE', 'THIRD', 'x', 'y')",SUBTRACT,4,"(3, 6, 4, 3)",3,3,2,9,double,decrease,third,UBUUxy,,,,,0,9,9,13,,,,,,space,2.28334362549,3,1,7.49995096249,2017_Apr_14_1720,59.9900458925,KRITL,001,31035,
,,,,,,,,"('INCREASE', 'HALF', 'THIRD', 'TIMES', 'x', 'y')",half,4,"(12, 4, 2, 3)",3,3,4,3,third,increase,TIMES,UUUBxy,,,,,0,10,10,16,,,,,,space,2.15011509543,3,1,3.66669261095,2017_Apr_14_1720,59.9900458925,KRITL,001,31035,
,,,,,,,,"('ADD', 'TRIPLE', 'DOUBLE', 'DECREASE', 'x', 'y')",triple,4,"(1, 2, 6, 8)",8,8,2,2,double,ADD,decrease,BUUUxy,,,,,0,11,11,11,,,,,,space,2.45003367052,8,1,3.78321019805,2017_Apr_14_1720,59.9900458925,KRITL,001,31035,
,,,,,,,,"('DECREASE', 'TIMES', 'x', 'y')",TIMES,2,"(9, 8)",8,8,3,3,0,decrease,0,UBxy,,,,,0,12,12,2,,,,,,space,0.833428272163,8,1,1.11669377983,2017_Apr_14_1720,59.9900458925,KRITL,001,31035,
,,,,,,,,"('ADD', 'DECREASE', 'THIRD', 'DOUBLE', 'x', 'y')",decrease,4,"(18, 6, 5, 9)",9,9,4,9,third,ADD,double,BUUUxy,,,,,0,13,13,10,,,,,,space,2.15006263682,9,1,3.83344110171,2017_Apr_14_1720,59.9900458925,KRITL,001,31035,
,,,,,,,,"('DECREASE', 'DOUBLE', 'TIMES', 'THIRD', 'x', 'y')",double,4,"(1, 3, 6, 5)",5,5,3,3,TIMES,decrease,third,UUBUxy,,,,,0,14,14,14,,,,,,space,2.00017163111,5,1,4.03343015385,2017_Apr_14_1720,59.9900458925,KRITL,001,31035,
,,,,,,,,"('HALF', 'INCREASE', 'TIMES', 'x', 'y')",increase,3,"(9, 10, 5)",5,5,3,3,TIMES,half,0,UUBxy,,,,,0,15,15,9,,,,,,space,1.23327979131,5,1,2.38333216449,2017_Apr_14_1720,59.9900458925,KRITL,001,31035,
,,,,,,,,"('THIRD', 'HALF', 'INCREASE', 'SUBTRACT', 'x', 'y')",half,4,"(5, 6, 3, 1)",1,1,2,7,increase,third,SUBTRACT,UUUBxy,,,,,0,16,16,17,,,,,,space,1.98344785871,1,1,2.66663787141,2017_Apr_14_1720,59.9900458925,KRITL,001,31035,
,,,,,,,,"('DIVIDE', 'DECREASE', 'x', 'y')",decrease,2,"(8, 2)",2,2,4,9,0,DIVIDE,0,BUxy,,,,,0,17,17,1,,,,,,space,0.766756131547,2,1,2.16671541904,2017_Apr_14_1720,59.9900458925,KRITL,001,31035,
,,,,,,,,"('DECREASE', 'DIVIDE', 'x', 'y')",DIVIDE,2,"(2, 1)",1,1,4,8,0,decrease,0,UBxy,,,,,0,0,0,2,,,,,,space,0.900188224157,1,1,1.5834138745,2017_Apr_14_1720,59.9900458925,KRITL,001,31035,
,,,,,,,,"('DIVIDE', 'INCREASE', 'x', 'y')",increase,2,"(4, 2)",2,2,2,3,0,DIVIDE,0,BUxy,,,,,0,1,1,0,,,,,,space,0.800179157755,2,1,1.05007523834,2017_Apr_14_1720,59.9900458925,KRITL,001,31035,
,,,,,,,,"('THIRD', 'TIMES', 'DOUBLE', 'DECREASE', 'x', 'y')",TIMES,4,"(1, 2, 6, 2)",2,2,3,2,double,third,decrease,UBUUxy,,,,,0,2,2,13,,,,,,space,2.03330870054,2,1,5.76661187015,2017_Apr_14_1720,59.9900458925,KRITL,001,31035,
,,,,,,,,"('HALF', 'TRIPLE', 'INCREASE', 'DIVIDE', 'x', 'y')",triple,4,"(3, 4, 12, 6)",6,6,3,9,increase,half,DIVIDE,UUUBxy,,,,,0,3,3,16,,,,,,space,2.28333421715,6,1,3.38327029743,2017_Apr_14_1720,59.9900458925,KRITL,001,31035,
,,,,,,,,"('HALF', 'ADD', 'TRIPLE', 'x', 'y')",ADD,3,"(9, 12, 6)",6,6,3,3,triple,half,0,UBUxy,,,,,0,4,4,6,,,,,,space,0.98325113859,6,1,2.33357395895,2017_Apr_14_1720,59.9900458925,KRITL,001,31035,
,,,,,,,,"('ADD', 'HALF', 'THIRD', 'x', 'y')",half,3,"(2, 1, 9)",9,9,8,6,third,ADD,0,BUUxy,,,,,0,5,5,4,,,,,,space,0.933427074691,9,1,2.45006674225,2017_Apr_14_1720,59.9900458925,KRITL,001,31035,
,,,,,,,,"('SUBTRACT', 'DECREASE', 'TRIPLE', 'DOUBLE', 'x', 'y')",decrease,4,"(6, 18, 17, 8)",8,8,9,3,triple,SUBTRACT,double,BUUUxy,,,,,0,6,6,11,,,,,,space,2.2167501729,8,1,9.81648383103,2017_Apr_14_1720,59.9900458925,KRITL,001,31035,
,,,,,,,,"('ADD', 'DOUBLE', 'DECREASE', 'THIRD', 'x', 'y')",double,4,"(2, 1, 2, 8)",8,8,6,6,decrease,ADD,third,BUUUxy,,,,,0,7,7,10,,,,,,space,2.23351100867,8,1,3.66672311677,2017_Apr_14_1720,59.9900458925,KRITL,001,31035,
,,,,,,,,"('INCREASE', 'ADD', 'x', 'y')",ADD,2,"(5, 6)",6,6,2,3,0,increase,0,UBxy,,,,,0,8,8,3,,,,,,space,0.783356169937,6,1,1.88351206353,2017_Apr_14_1720,59.9900458925,KRITL,001,31035,
,,,,,,,,"('THIRD', 'HALF', 'ADD', 'x', 'y')",half,3,"(6, 3, 1)",1,1,3,3,ADD,third,0,UUBxy,,,,,0,9,9,9,,,,,,space,1.73352583393,1,1,3.00008724106,2017_Apr_14_1720,59.9900458925,KRITL,001,31035,
,,,,,,,,"('THIRD', 'DOUBLE', 'INCREASE', 'TIMES', 'x', 'y')",double,4,"(8, 9, 18, 6)",6,6,4,2,increase,third,TIMES,UUUBxy,,,,,0,10,10,17,,,,,,space,1.46677625971,6,1,5.20018320624,2017_Apr_14_1720,59.9900458925,KRITL,001,31035,
,,,,,,,,"('INCREASE', 'TRIPLE', 'DIVIDE', 'x', 'y')",triple,3,"(2, 6, 7)",7,7,3,6,DIVIDE,increase,0,UUBxy,,,,,0,11,11,8,,,,,,space,1.21678980207,7,1,1.80000724155,2017_Apr_14_1720,59.9900458925,KRITL,001,31035,
,,,,,,,,"('THIRD', 'INCREASE', 'DIVIDE', 'DOUBLE', 'x', 'y')",increase,4,"(18, 2, 3, 1)",1,1,9,9,DIVIDE,third,double,UUBUxy,,,,,0,12,12,15,,,,,,space,2.63347799378,1,1,4.49992102687,2017_Apr_14_1720,59.9900458925,KRITL,001,31035,
,,,,,,,,"('SUBTRACT', 'DECREASE', 'x', 'y')",decrease,2,"(5, 3)",3,3,2,6,0,SUBTRACT,0,BUxy,,,,,0,13,13,1,,,,,,space,0.783551179455,3,1,2.91693879606,2017_Apr_14_1720,59.9900458925,KRITL,001,31035,
,,,,,,,,"('DOUBLE', 'ADD', 'INCREASE', 'THIRD', 'x', 'y')",ADD,4,"(1, 2, 4, 8)",8,8,2,3,increase,double,third,UBUUxy,,,,,0,14,14,12,,,,,,space,2.70014614309,8,1,3.58334602031,2017_Apr_14_1720,59.9900458925,KRITL,001,31035,
,,,,,,,,"('INCREASE', 'SUBTRACT', 'HALF', 'x', 'y')",SUBTRACT,3,"(4, 2, 3)",3,3,2,8,half,increase,0,UBUxy,,,,,0,15,15,7,,,,,,space,1.13347172167,3,1,3.20012846671,2017_Apr_14_1720,59.9900458925,KRITL,001,31035,
,,,,,,,,"('DIVIDE', 'DECREASE', 'TRIPLE', 'x', 'y')",decrease,3,"(9, 8, 4)",4,4,2,3,triple,DIVIDE,0,BUUxy,,,,,0,16,16,5,,,,,,space,1.01678307366,4,1,2.83339463011,2017_Apr_14_1720,59.9900458925,KRITL,001,31035,
,,,,,,,,"('THIRD', 'DOUBLE', 'ADD', 'DECREASE', 'x', 'y')",double,4,"(5, 12, 24, 8)",8,8,7,6,ADD,third,decrease,UUBUxy,,,,,0,17,17,14,,,,,,space,2.18353270483,8,1,4.38346302602,2017_Apr_14_1720,59.9900458925,KRITL,001,31035,
,,,,,,,,"('DECREASE', 'TRIPLE', 'DIVIDE', 'x', 'y')",triple,3,"(2, 6, 5)",5,5,4,8,DIVIDE,decrease,0,UUBxy,,,,,0,0,0,8,,,,,,space,1.05020695529,5,1,2.55015364115,2017_Apr_14_1720,59.9900458925,KRITL,001,31035,
,,,,,,,,"('SUBTRACT', 'INCREASE', 'x', 'y')",increase,2,"(6, 2)",2,2,4,5,0,SUBTRACT,0,BUxy,,,,,0,1,1,1,,,,,,space,0.716747892206,2,1,2.51690338645,2017_Apr_14_1720,59.9900458925,KRITL,001,31035,
,,,,,,,,"('DOUBLE', 'TIMES', 'x', 'y')",TIMES,2,"(4, 8)",8,8,2,2,0,double,0,UBxy,,,,,0,2,2,3,,,,,,space,0.650102265994,8,1,2.53350684617,2017_Apr_14_1720,59.9900458925,KRITL,001,31035,
,,,,,,,,"('DOUBLE', 'ADD', 'x', 'y')",ADD,2,"(4, 8)",8,8,2,2,0,double,0,UBxy,,,,,0,3,3,2,,,,,,space,0.783433147357,8,1,1.75005573733,2017_Apr_14_1720,59.9900458925,KRITL,001,31035,
,,,,,,,,"('ADD', 'THIRD', 'x', 'y')",third,2,"(1, 7)",7,7,6,3,0,ADD,0,BUxy,,,,,0,4,4,0,,,,,,space,2.35005311435,7,1,2.13334855775,2017_Apr_14_1720,59.9900458925,KRITL,001,31035,
,,,,,,,,"('THIRD', 'INCREASE', 'ADD', 'DOUBLE', 'x', 'y')",increase,4,"(16, 20, 21, 7)",7,7,4,8,ADD,third,double,UUBUxy,,,,,0,5,5,14,,,,,,space,1.9168743632,7,1,3.56671918242,2017_Apr_14_1720,59.9900458925,KRITL,001,31035,
,,,,,,,,"('TRIPLE', 'DOUBLE', 'SUBTRACT', 'DECREASE', 'x', 'y')",double,4,"(4, 1, 2, 6)",6,6,3,5,SUBTRACT,triple,decrease,UUBUxy,,,,,0,6,6,15,,,,,,space,2.53340506495,6,1,3.75009023456,2017_Apr_14_1720,59.9900458925,KRITL,001,31035,
,,,,,,,,"('DIVIDE', 'TRIPLE', 'HALF', 'x', 'y')",triple,3,"(4, 12, 4)",4,4,3,8,half,DIVIDE,0,BUUxy,,,,,0,7,7,4,,,,,,space,2.08353048109,4,1,2.51674344449,2017_Apr_14_1720,59.9900458925,KRITL,001,31035,
,,,,,,,,"('THIRD', 'TIMES', 'HALF', 'INCREASE', 'x', 'y')",TIMES,4,"(8, 4, 12, 4)",4,4,3,7,half,third,increase,UBUUxy,,,,,0,8,8,13,,,,,,space,2.56667527673,4,1,5.6667824178,2017_Apr_14_1720,59.9900458925,KRITL,001,31035,
,,,,,,,,"('TRIPLE', 'DECREASE', 'HALF', 'SUBTRACT', 'x', 'y')",decrease,4,"(4, 2, 1, 3)",3,3,5,9,half,triple,SUBTRACT,UUUBxy,,,,,0,9,9,17,,,,,,space,2.61677531886,3,1,3.08350140078,2017_Apr_14_1720,59.9900458925,KRITL,001,31035,
,,,,,,,,"('INCREASE', 'SUBTRACT', 'THIRD', 'x', 'y')",SUBTRACT,3,"(3, 1, 2)",2,2,2,9,third,increase,0,UBUxy,,,,,0,10,10,7,,,,,,space,1.10011426872,2,1,2.73337701091,2017_Apr_14_1720,59.9900458925,KRITL,001,31035,
,,,,,,,,"('THIRD', 'INCREASE', 'SUBTRACT', 'x', 'y')",increase,3,"(2, 3, 1)",1,1,6,8,SUBTRACT,third,0,UUBxy,,,,,0,11,11,9,,,,,,space,0.900210176827,1,1,2.06673058635,2017_Apr_14_1720,59.9900458925,KRITL,001,31035,
,,,,,,,,"('TIMES', 'THIRD', 'DOUBLE', 'x', 'y')",third,3,"(6, 2, 4)",4,4,2,3,double,TIMES,0,BUUxy,,,,,0,12,12,5,,,,,,space,1.71678467025,4,1,3.51687601674,2017_Apr_14_1720,59.9900458925,KRITL,001,31035,
,,,,,,,,"('DECREASE', 'TRIPLE', 'HALF', 'ADD', 'x', 'y')",triple,4,"(6, 3, 9, 8)",8,8,2,4,half,decrease,ADD,UUUBxy,,,,,0,13,13,16,,,,,,space,3.13346630475,8,1,2.85017371236,2017_Apr_14_1720,59.9900458925,KRITL,001,31035,
,,,,,,,,"('DIVIDE', 'DOUBLE', 'INCREASE', 'THIRD', 'x', 'y')",double,4,"(2, 3, 6, 2)",2,2,3,6,increase,DIVIDE,third,BUUUxy,,,,,0,14,14,10,,,,,,space,3.29995278711,2,1,3.24999586598,2017_Apr_14_1720,59.9900458925,KRITL,001,31035,
,,,,,,,,"('INCREASE', 'ADD', 'TRIPLE', 'x', 'y')",ADD,3,"(6, 8, 9)",9,9,2,2,triple,increase,0,UBUxy,,,,,0,15,15,6,,,,,,space,0.966761434451,9,1,2.86662378744,2017_Apr_14_1720,59.9900458925,KRITL,001,31035,
,,,,,,,,"('TIMES', 'INCREASE', 'HALF', 'TRIPLE', 'x', 'y')",increase,4,"(6, 3, 4, 8)",8,8,2,2,half,TIMES,triple,BUUUxy,,,,,0,16,16,11,,,,,,space,1.65014617157,8,1,3.68338416703,2017_Apr_14_1720,59.9900458925,KRITL,001,31035,
,,,,,,,,"('INCREASE', 'DIVIDE', 'TRIPLE', 'HALF', 'x', 'y')",DIVIDE,4,"(2, 6, 2, 3)",3,3,3,4,triple,increase,half,UBUUxy,,,,,0,17,17,12,,,,,,space,2.81660756504,3,1,3.33315343421,2017_Apr_14_1720,59.9900458925,KRITL,001,31035,
,,,,,,,,"('SUBTRACT', 'THIRD', 'x', 'y')",third,2,"(3, 1)",1,1,2,9,0,SUBTRACT,0,BUxy,,,,,0,0,0,0,,,,,,space,0.833541172324,1,1,2.61677931028,2017_Apr_14_1720,59.9900458925,KRITL,001,31035,
,,,,,,,,"('TRIPLE', 'SUBTRACT', 'x', 'y')",SUBTRACT,2,"(2, 6)",6,6,6,8,0,triple,0,UBxy,,,,,0,1,1,3,,,,,,space,0.800006386242,6,1,1.50010976417,2017_Apr_14_1720,59.9900458925,KRITL,001,31035,
,,,,,,,,"('THIRD', 'INCREASE', 'SUBTRACT', 'HALF', 'x', 'y')",increase,4,"(4, 2, 3, 1)",1,1,2,8,SUBTRACT,third,half,UUBUxy,,,,,0,2,2,15,,,,,,space,2.1834024135,1,1,3.16662304616,2017_Apr_14_1720,59.9900458925,KRITL,001,31035,
,,,,,,,,"('INCREASE', 'TRIPLE', 'HALF', 'ADD', 'x', 'y')",triple,4,"(4, 2, 6, 7)",7,7,2,2,half,increase,ADD,UUUBxy,,,,,0,3,3,17,,,,,,space,3.18331830844,7,1,3.20017066179,2017_Apr_14_1720,59.9900458925,KRITL,001,31035,
,,,,,,,,"('DECREASE', 'HALF', 'TRIPLE', 'ADD', 'x', 'y')",half,4,"(4, 12, 6, 5)",5,5,2,2,triple,decrease,ADD,UUUBxy,,,,,0,4,4,16,,,,,,space,2.43337404588,5,1,3.60003643599,2017_Apr_14_1720,59.9900458925,KRITL,001,31035,
,,,,,,,,"('TRIPLE', 'SUBTRACT', 'INCREASE', 'HALF', 'x', 'y')",SUBTRACT,4,"(3, 4, 1, 3)",3,3,3,6,increase,triple,half,UBUUxy,,,,,0,5,5,13,,,,,,space,2.60002503195,3,1,2.66663159919,2017_Apr_14_1720,59.9900458925,KRITL,001,31035,
,,,,,,,,"('TIMES', 'THIRD', 'x', 'y')",third,2,"(1, 4)",4,4,4,3,0,TIMES,0,BUxy,,,,,0,6,6,1,,,,,,space,0.866865268326,4,1,2.13329980546,2017_Apr_14_1720,59.9900458925,KRITL,001,31035,
,,,,,,,,"('INCREASE', 'TIMES', 'x', 'y')",TIMES,2,"(8, 9)",9,9,4,2,0,increase,0,UBxy,,,,,0,7,7,2,,,,,,space,0.80008307856,9,1,1.30014209473,2017_Apr_14_1720,59.9900458925,KRITL,001,31035,
,,,,,,,,"('INCREASE', 'HALF', 'TIMES', 'TRIPLE', 'x', 'y')",half,4,"(6, 12, 6, 7)",7,7,2,2,TIMES,increase,triple,UUBUxy,,,,,0,8,8,14,,,,,,space,2.06677135592,7,1,3.66676730756,2017_Apr_14_1720,59.9900458925,KRITL,001,31035,
,,,,,,,,"('TIMES', 'DECREASE', 'THIRD', 'DOUBLE', 'x', 'y')",decrease,4,"(6, 2, 1, 2)",2,2,2,3,third,TIMES,double,BUUUxy,,,,,0,9,9,11,,,,,,space,2.70007116138,2,1,3.48343845026,2017_Apr_14_1720,59.9900458925,KRITL,001,31035,
,,,,,,,,"('DECREASE', 'DIVIDE', 'TRIPLE', 'DOUBLE', 'x', 'y')",DIVIDE,4,"(6, 18, 2, 1)",1,1,9,3,triple,decrease,double,UBUUxy,,,,,0,10,10,12,,,,,,space,2.65013448242,1,1,4.38330023293,2017_Apr_14_1720,59.9900458925,KRITL,001,31035,
,,,,,,,,"('DIVIDE', 'DECREASE', 'THIRD', 'DOUBLE', 'x', 'y')",decrease,4,"(12, 4, 3, 1)",1,1,3,6,third,DIVIDE,double,BUUUxy,,,,,0,11,11,10,,,,,,space,2.56671604631,1,1,2.80010161025,2017_Apr_14_1720,59.9900458925,KRITL,001,31035,
,,,,,,,,"('DOUBLE', 'TIMES', 'THIRD', 'x', 'y')",TIMES,3,"(1, 4, 8)",8,8,4,3,third,double,0,UBUxy,,,,,0,12,12,6,,,,,,space,1.15018551564,8,1,2.63344264124,2017_Apr_14_1720,59.9900458925,KRITL,001,31035,
,,,,,,,,"('TRIPLE', 'HALF', 'TIMES', 'x', 'y')",half,3,"(6, 3, 9)",9,9,3,2,TIMES,triple,0,UUBxy,,,,,0,13,13,9,,,,,,space,1.35014919366,9,1,2.04992755561,2017_Apr_14_1720,59.9900458925,KRITL,001,31035,
,,,,,,,,"('INCREASE', 'DIVIDE', 'HALF', 'x', 'y')",DIVIDE,3,"(2, 1, 2)",2,2,2,4,half,increase,0,UBUxy,,,,,0,14,14,7,,,,,,space,1.15018979204,2,1,2.08341045328,2017_Apr_14_1720,59.9900458925,KRITL,001,31035,
,,,,,,,,"('SUBTRACT', 'DOUBLE', 'DECREASE', 'x', 'y')",double,3,"(8, 16, 7)",7,7,9,9,decrease,SUBTRACT,0,BUUxy,,,,,0,15,15,5,,,,,,space,1.30012384814,7,1,5.75003920146,2017_Apr_14_1720,59.9900458925,KRITL,001,31035,
,,,,,,,,"('ADD', 'DECREASE', 'HALF', 'x', 'y')",decrease,3,"(3, 2, 6)",6,6,4,6,half,ADD,0,BUUxy,,,,,0,16,16,4,,,,,,space,0.966789374361,6,1,2.2833202472,2017_Apr_14_1720,59.9900458925,KRITL,001,31035,
,,,,,,,,"('DECREASE', 'HALF', 'DIVIDE', 'x', 'y')",half,3,"(4, 2, 1)",1,1,2,8,DIVIDE,decrease,0,UUBxy,,,,,0,17,17,8,,,,,,space,1.43347981852,1,1,2.05007552332,2017_Apr_14_1720,59.9900458925,KRITL,001,31035,
,,,,,,,,"('THIRD', 'INCREASE', 'HALF', 'DIVIDE', 'x', 'y')",increase,4,"(4, 2, 3, 1)",1,1,2,8,half,third,DIVIDE,UUUBxy,,,,,0,0,0,16,,,,,,space,1.41678626672,1,1,3.56684605265,2017_Apr_14_1720,59.9900458925,KRITL,001,31035,
,,,,,,,,"('THIRD', 'ADD', 'x', 'y')",ADD,2,"(9, 3)",3,3,5,4,0,third,0,UBxy,,,,,0,1,1,2,,,,,,space,0.716894149198,3,1,1.51676710788,2017_Apr_14_1720,59.9900458925,KRITL,001,31035,
,,,,,,,,"('TIMES', 'THIRD', 'HALF', 'x', 'y')",third,3,"(3, 1, 5)",5,5,5,6,half,TIMES,0,BUUxy,,,,,0,2,2,5,,,,,,space,1.33341715322,5,1,3.35006793961,2017_Apr_14_1720,59.9900458925,KRITL,001,31035,
,,,,,,,,"('TIMES', 'INCREASE', 'x', 'y')",increase,2,"(3, 6)",6,6,2,2,0,TIMES,0,BUxy,,,,,0,3,3,1,,,,,,space,0.783535498893,6,1,1.41677372227,2017_Apr_14_1720,59.9900458925,KRITL,001,31035,
,,,,,,,,"('THIRD', 'TIMES', 'DECREASE', 'x', 'y')",TIMES,3,"(3, 15, 5)",5,5,5,4,decrease,third,0,UBUxy,,,,,0,4,4,7,,,,,,space,1.85008162458,5,1,3.04993468325,2017_Apr_14_1720,59.9900458925,KRITL,001,31035,
,,,,,,,,"('TRIPLE', 'DECREASE', 'HALF', 'TIMES', 'x', 'y')",decrease,4,"(6, 3, 2, 6)",6,6,2,3,half,triple,TIMES,UUUBxy,,,,,0,5,5,17,,,,,,space,2.41667764308,6,1,3.00005473953,2017_Apr_14_1720,59.9900458925,KRITL,001,31035,
,,,,,,,,"('SUBTRACT', 'HALF', 'INCREASE', 'TRIPLE', 'x', 'y')",half,4,"(15, 16, 8, 3)",3,3,5,5,increase,SUBTRACT,triple,BUUUxy,,,,,0,6,6,10,,,,,,space,2.58335400326,3,1,3.71684568189,2017_Apr_14_1720,59.9900458925,KRITL,001,31035,
,,,,,,,,"('TRIPLE', 'HALF', 'DIVIDE', 'x', 'y')",half,3,"(2, 1, 3)",3,3,2,4,DIVIDE,triple,0,UUBxy,,,,,0,7,7,9,,,,,,space,1.01669013046,3,1,3.0334937314,2017_Apr_14_1720,59.9900458925,KRITL,001,31035,
,,,,,,,,"('THIRD', 'DOUBLE', 'ADD', 'INCREASE', 'x', 'y')",double,4,"(10, 12, 24, 8)",8,8,2,9,ADD,third,increase,UUBUxy,,,,,0,8,8,14,,,,,,space,1.78354804334,8,1,4.23326952755,2017_Apr_14_1720,59.9900458925,KRITL,001,31035,
,,,,,,,,"('INCREASE', 'DIVIDE', 'TRIPLE', 'DOUBLE', 'x', 'y')",DIVIDE,4,"(6, 18, 3, 4)",4,4,6,3,triple,increase,double,UBUUxy,,,,,0,9,9,12,,,,,,space,2.08337139443,4,1,6.73329319095,2017_Apr_14_1720,59.9900458925,KRITL,001,31035,
,,,,,,,,"('TIMES', 'INCREASE', 'THIRD', 'DOUBLE', 'x', 'y')",increase,4,"(6, 2, 3, 9)",9,9,3,3,third,TIMES,double,BUUUxy,,,,,0,10,10,11,,,,,,space,2.08339933446,9,1,3.43340084539,2017_Apr_14_1720,59.9900458925,KRITL,001,31035,
,,,,,,,,"('THIRD', 'DECREASE', 'TIMES', 'x', 'y')",decrease,3,"(25, 24, 8)",8,8,5,5,TIMES,third,0,UUBxy,,,,,0,11,11,8,,,,,,space,0.96678652335,8,1,3.56673286727,2017_Apr_14_1720,59.9900458925,KRITL,001,31035,
,,,,,,,,"('THIRD', 'SUBTRACT', 'x', 'y')",SUBTRACT,2,"(3, 1)",1,1,2,5,0,third,0,UBxy,,,,,0,12,12,3,,,,,,space,0.766889844206,1,1,1.30011786101,2017_Apr_14_1720,59.9900458925,KRITL,001,31035,
,,,,,,,,"('TRIPLE', 'SUBTRACT', 'DOUBLE', 'DECREASE', 'x', 'y')",SUBTRACT,4,"(2, 4, 1, 3)",3,3,3,3,double,triple,decrease,UBUUxy,,,,,0,13,13,13,,,,,,space,2.54983404232,3,1,4.70017636381,2017_Apr_14_1720,59.9900458925,KRITL,001,31035,
,,,,,,,,"('TIMES', 'DECREASE', 'HALF', 'x', 'y')",decrease,3,"(4, 3, 9)",9,9,3,8,half,TIMES,0,BUUxy,,,,,0,14,14,4,,,,,,space,1.40008416201,9,1,2.33329627011,2017_Apr_14_1720,59.9900458925,KRITL,001,31035,
,,,,,,,,"('TRIPLE', 'HALF', 'ADD', 'DECREASE', 'x', 'y')",half,4,"(1, 4, 2, 6)",6,6,3,2,ADD,triple,decrease,UUBUxy,,,,,0,15,15,15,,,,,,space,2.30022192304,6,1,2.53342787293,2017_Apr_14_1720,59.9900458925,KRITL,001,31035,
,,,,,,,,"('THIRD', 'ADD', 'INCREASE', 'x', 'y')",ADD,3,"(8, 15, 5)",5,5,7,7,increase,third,0,UBUxy,,,,,0,16,16,6,,,,,,space,1.1500583603,5,1,2.23344429489,2017_Apr_14_1720,59.9900458925,KRITL,001,31035,
,,,,,,,,"('TIMES', 'DECREASE', 'x', 'y')",decrease,2,"(2, 4)",4,4,2,3,0,TIMES,0,BUxy,,,,,0,17,17,0,,,,,,space,0.850159172202,4,1,1.23352526373,2017_Apr_14_1720,59.9900458925,KRITL,001,31035,
