operationc,operationb,operationa,correctresponse,valuey,operationd,condition,valuex,Rule,Operatora,Length,Intermediate,CorrectResponse,Result,Y,X,Operatorc,Operatorb,Operatord,Structure,practice_trials.thisRepN,practice_trials.thisTrialN,practice_trials.thisN,practice_trials.thisIndex,block.thisRepN,block.thisTrialN,block.thisN,block.thisIndex,practice_encoding.keys,practice_encoding.rt,practice_execution.keys,practice_execution.corr,practice_execution.rt,encoding.keys,encoding.rt,execution.keys,execution.corr,execution.rt,date,frameRate,expName,session,participant,
0,ADD,half,7,5,0,2,4,,,,,,,,,,,,,0,0,0,2,,,,,['space'],[13.039806246233638],None,0,,,,,,,2017_Apr_14_0929,None,KRITL,001,31033,
0,decrease,TIMES,8,3,0,2,3,,,,,,,,,,,,,0,1,1,1,,,,,['space'],[4.815576944529312],8,1,18.3069319717,,,,,,2017_Apr_14_0929,None,KRITL,001,31033,
ADD,triple ,half,8,2,0,3,4,,,,,,,,,,,,,0,2,2,3,,,,,['space'],[4.800114508077968],1,0,8.17699788028,,,,,,2017_Apr_14_0929,None,KRITL,001,31033,
increase,DIVIDE,double,9,8,triple,4,8,,,,,,,,,,,,,0,3,3,5,,,,,['space'],[7.833986073557753],4,0,7.79250945165,,,,,,2017_Apr_14_0929,None,KRITL,001,31033,
increase,DIVIDE,triple,3,3,0,3,2,,,,,,,,,,,,,0,4,4,4,,,,,['space'],[6.185634629044216],7,0,7.39533484681,,,,,,2017_Apr_14_0929,None,KRITL,001,31033,
0,ADD,decrease,7,5,0,2,3,,,,,,,,,,,,,0,5,5,0,,,,,['space'],[1.5792263077455573],7,1,3.97580107517,,,,,,2017_Apr_14_0929,None,KRITL,001,31033,
,,,,,,,,"('HALF', 'ADD', 'TRIPLE', 'x', 'y')",ADD,3,"(9, 12, 6)",6,6,3,3,triple,half,0,UBUxy,,,,,0,0,0,6,,,,,,space,3.57927775235,1,0,5.49333897009,2017_Apr_14_0929,None,KRITL,001,31033,
,,,,,,,,"('ADD', 'HALF', 'THIRD', 'x', 'y')",half,3,"(2, 1, 9)",9,9,8,6,third,ADD,0,BUUxy,,,,,0,1,1,4,,,,,,space,5.76305232549,9,1,4.74041528767,2017_Apr_14_0929,None,KRITL,001,31033,
,,,,,,,,"('THIRD', 'TIMES', 'DOUBLE', 'DECREASE', 'x', 'y')",TIMES,4,"(1, 2, 6, 2)",2,2,3,2,double,third,decrease,UBUUxy,,,,,0,2,2,13,,,,,,space,5.95329317386,2,1,6.50382807554,2017_Apr_14_0929,None,KRITL,001,31033,
,,,,,,,,"('INCREASE', 'TRIPLE', 'DIVIDE', 'x', 'y')",triple,3,"(2, 6, 7)",7,7,3,6,DIVIDE,increase,0,UUBxy,,,,,0,3,3,8,,,,,,space,2.26176113522,3,0,5.41234062225,2017_Apr_14_0929,None,KRITL,001,31033,
,,,,,,,,"('THIRD', 'DOUBLE', 'ADD', 'DECREASE', 'x', 'y')",double,4,"(5, 12, 24, 8)",8,8,7,6,ADD,third,decrease,UUBUxy,,,,,0,4,4,14,,,,,,space,7.76187084877,8,1,8.96501135104,2017_Apr_14_0929,None,KRITL,001,31033,
,,,,,,,,"('THIRD', 'HALF', 'ADD', 'x', 'y')",half,3,"(6, 3, 1)",1,1,3,3,ADD,third,0,UUBxy,,,,,0,5,5,9,,,,,,space,1.36163966291,1,1,11.3871177043,2017_Apr_14_0929,None,KRITL,001,31033,
,,,,,,,,"('DIVIDE', 'DECREASE', 'TRIPLE', 'x', 'y')",decrease,3,"(9, 8, 4)",4,4,2,3,triple,DIVIDE,0,BUUxy,,,,,0,6,6,5,,,,,,space,1.69564025995,3,0,12.4372986179,2017_Apr_14_0929,None,KRITL,001,31033,
,,,,,,,,"('ADD', 'DOUBLE', 'DECREASE', 'THIRD', 'x', 'y')",double,4,"(2, 1, 2, 8)",8,8,6,6,decrease,ADD,third,BUUUxy,,,,,0,7,7,10,,,,,,space,7.73153006483,8,1,4.58007706897,2017_Apr_14_0929,None,KRITL,001,31033,
,,,,,,,,"('SUBTRACT', 'DECREASE', 'TRIPLE', 'DOUBLE', 'x', 'y')",decrease,4,"(6, 18, 17, 8)",8,8,9,3,triple,SUBTRACT,double,BUUUxy,,,,,0,8,8,11,,,,,,space,5.37874762766,2,0,18.244197168,2017_Apr_14_0929,None,KRITL,001,31033,
,,,,,,,,"('INCREASE', 'SUBTRACT', 'HALF', 'x', 'y')",SUBTRACT,3,"(4, 2, 3)",3,3,2,8,half,increase,0,UBUxy,,,,,0,9,9,7,,,,,,space,2.31013903697,1,0,3.72971760397,2017_Apr_14_0929,None,KRITL,001,31033,
,,,,,,,,"('DOUBLE', 'ADD', 'INCREASE', 'THIRD', 'x', 'y')",ADD,4,"(1, 2, 4, 8)",8,8,2,3,increase,double,third,UBUUxy,,,,,0,10,10,12,,,,,,space,2.85320396817,8,1,8.46685408376,2017_Apr_14_0929,None,KRITL,001,31033,
,,,,,,,,"('DIVIDE', 'INCREASE', 'x', 'y')",increase,2,"(4, 2)",2,2,2,3,0,DIVIDE,0,BUxy,,,,,0,11,11,0,,,,,,space,1.29806669673,2,1,7.78133161803,2017_Apr_14_0929,None,KRITL,001,31033,
,,,,,,,,"('HALF', 'TRIPLE', 'INCREASE', 'DIVIDE', 'x', 'y')",triple,4,"(3, 4, 12, 6)",6,6,3,9,increase,half,DIVIDE,UUUBxy,,,,,0,12,12,16,,,,,,space,6.96576797211,3,0,14.4530018292,2017_Apr_14_0929,None,KRITL,001,31033,
,,,,,,,,"('THIRD', 'DOUBLE', 'INCREASE', 'TIMES', 'x', 'y')",double,4,"(8, 9, 18, 6)",6,6,4,2,increase,third,TIMES,UUUBxy,,,,,0,13,13,17,,,,,,space,3.22135750134,6,1,7.59075270497,2017_Apr_14_0929,None,KRITL,001,31033,
,,,,,,,,"('THIRD', 'INCREASE', 'DIVIDE', 'DOUBLE', 'x', 'y')",increase,4,"(18, 2, 3, 1)",1,1,9,9,DIVIDE,third,double,UUBUxy,,,,,0,14,14,15,,,,,,space,2.33830199818,1,1,5.75208726971,2017_Apr_14_0929,None,KRITL,001,31033,
,,,,,,,,"('INCREASE', 'ADD', 'x', 'y')",ADD,2,"(5, 6)",6,6,2,3,0,increase,0,UBxy,,,,,0,15,15,3,,,,,,space,0.977369611501,6,1,2.21398937018,2017_Apr_14_0929,None,KRITL,001,31033,
,,,,,,,,"('SUBTRACT', 'DECREASE', 'x', 'y')",decrease,2,"(5, 3)",3,3,2,6,0,SUBTRACT,0,BUxy,,,,,0,16,16,1,,,,,,space,1.56773350699,3,1,1.81368714175,2017_Apr_14_0929,None,KRITL,001,31033,
,,,,,,,,"('DECREASE', 'DIVIDE', 'x', 'y')",DIVIDE,2,"(2, 1)",1,1,4,8,0,decrease,0,UBxy,,,,,0,17,17,2,,,,,,space,1.05872107245,1,1,2.69510271604,2017_Apr_14_0929,None,KRITL,001,31033,
,,,,,,,,"('TRIPLE', 'DECREASE', 'HALF', 'SUBTRACT', 'x', 'y')",decrease,4,"(4, 2, 1, 3)",3,3,5,9,half,triple,SUBTRACT,UUUBxy,,,,,0,0,0,17,,,,,,space,9.70734653837,3,1,5.65331917614,2017_Apr_14_0929,None,KRITL,001,31033,
,,,,,,,,"('THIRD', 'INCREASE', 'SUBTRACT', 'x', 'y')",increase,3,"(2, 3, 1)",1,1,6,8,SUBTRACT,third,0,UUBxy,,,,,0,1,1,9,,,,,,space,1.2993493129,1,1,7.23543618224,2017_Apr_14_0929,None,KRITL,001,31033,
,,,,,,,,"('DOUBLE', 'TIMES', 'x', 'y')",TIMES,2,"(4, 8)",8,8,2,2,0,double,0,UBxy,,,,,0,2,2,3,,,,,,space,1.99292023876,8,1,3.95537755635,2017_Apr_14_0929,None,KRITL,001,31033,
,,,,,,,,"('SUBTRACT', 'INCREASE', 'x', 'y')",increase,2,"(6, 2)",2,2,4,5,0,SUBTRACT,0,BUxy,,,,,0,3,3,1,,,,,,space,1.02737764316,2,1,3.35024030242,2017_Apr_14_0929,None,KRITL,001,31033,
,,,,,,,,"('THIRD', 'TIMES', 'HALF', 'INCREASE', 'x', 'y')",TIMES,4,"(8, 4, 12, 4)",4,4,3,7,half,third,increase,UBUUxy,,,,,0,4,4,13,,,,,,space,2.59509225213,4,1,9.44054487912,2017_Apr_14_0929,None,KRITL,001,31033,
,,,,,,,,"('INCREASE', 'SUBTRACT', 'THIRD', 'x', 'y')",SUBTRACT,3,"(3, 1, 2)",2,2,2,9,third,increase,0,UBUxy,,,,,0,5,5,7,,,,,,space,2.38906175143,2,1,5.31183286026,2017_Apr_14_0929,None,KRITL,001,31033,
,,,,,,,,"('DOUBLE', 'ADD', 'x', 'y')",ADD,2,"(4, 8)",8,8,2,2,0,double,0,UBxy,,,,,0,6,6,2,,,,,,space,0.978525540879,8,1,1.48071963689,2017_Apr_14_0929,None,KRITL,001,31033,
,,,,,,,,"('INCREASE', 'ADD', 'TRIPLE', 'x', 'y')",ADD,3,"(6, 8, 9)",9,9,2,2,triple,increase,0,UBUxy,,,,,0,7,7,6,,,,,,space,1.63544759105,1,0,4.29320115445,2017_Apr_14_0929,None,KRITL,001,31033,
,,,,,,,,"('ADD', 'THIRD', 'x', 'y')",third,2,"(1, 7)",7,7,6,3,0,ADD,0,BUxy,,,,,0,8,8,0,,,,,,space,3.72053911173,7,1,2.4341793934,2017_Apr_14_0929,None,KRITL,001,31033,
,,,,,,,,"('DIVIDE', 'TRIPLE', 'HALF', 'x', 'y')",triple,3,"(4, 12, 4)",4,4,3,8,half,DIVIDE,0,BUUxy,,,,,0,9,9,4,,,,,,space,4.37324095232,3,0,15.5382427844,2017_Apr_14_0929,None,KRITL,001,31033,
,,,,,,,,"('DECREASE', 'TRIPLE', 'DIVIDE', 'x', 'y')",triple,3,"(2, 6, 5)",5,5,4,8,DIVIDE,decrease,0,UUBxy,,,,,0,10,10,8,,,,,,space,1.21965387912,7,0,4.91856874735,2017_Apr_14_0929,None,KRITL,001,31033,
,,,,,,,,"('TIMES', 'THIRD', 'DOUBLE', 'x', 'y')",third,3,"(6, 2, 4)",4,4,2,3,double,TIMES,0,BUUxy,,,,,0,11,11,5,,,,,,space,4.63363198051,3,0,11.649027574,2017_Apr_14_0929,None,KRITL,001,31033,
,,,,,,,,"('DECREASE', 'TRIPLE', 'HALF', 'ADD', 'x', 'y')",triple,4,"(6, 3, 9, 8)",8,8,2,4,half,decrease,ADD,UUUBxy,,,,,0,12,12,16,,,,,,space,8.13412945357,2,0,10.9951670043,2017_Apr_14_0929,None,KRITL,001,31033,
,,,,,,,,"('THIRD', 'INCREASE', 'ADD', 'DOUBLE', 'x', 'y')",increase,4,"(16, 20, 21, 7)",7,7,4,8,ADD,third,double,UUBUxy,,,,,0,13,13,14,,,,,,space,3.73249456417,7,1,7.04591380889,2017_Apr_14_0929,None,KRITL,001,31033,
,,,,,,,,"('INCREASE', 'DIVIDE', 'TRIPLE', 'HALF', 'x', 'y')",DIVIDE,4,"(2, 6, 2, 3)",3,3,3,4,triple,increase,half,UBUUxy,,,,,0,14,14,12,,,,,,space,1.88971110864,2,0,9.03061795502,2017_Apr_14_0929,None,KRITL,001,31033,
,,,,,,,,"('DIVIDE', 'DOUBLE', 'INCREASE', 'THIRD', 'x', 'y')",double,4,"(2, 3, 6, 2)",2,2,3,6,increase,DIVIDE,third,BUUUxy,,,,,0,15,15,10,,,,,,space,5.73353010614,2,1,6.90010292426,2017_Apr_14_0929,None,KRITL,001,31033,
,,,,,,,,"('TRIPLE', 'DOUBLE', 'SUBTRACT', 'DECREASE', 'x', 'y')",double,4,"(4, 1, 2, 6)",6,6,3,5,SUBTRACT,triple,decrease,UUBUxy,,,,,0,16,16,15,,,,,,space,7.76335574384,1,0,11.8097031575,2017_Apr_14_0929,None,KRITL,001,31033,
,,,,,,,,"('TIMES', 'INCREASE', 'HALF', 'TRIPLE', 'x', 'y')",increase,4,"(6, 3, 4, 8)",8,8,2,2,half,TIMES,triple,BUUUxy,,,,,0,17,17,11,,,,,,space,2.26007151153,1,0,7.18870975813,2017_Apr_14_0929,None,KRITL,001,31033,
,,,,,,,,"('THIRD', 'HALF', 'INCREASE', 'SUBTRACT', 'x', 'y')",half,4,"(5, 6, 3, 1)",1,1,2,7,increase,third,SUBTRACT,UUUBxy,,,,,0,0,0,17,,,,,,space,7.39144395283,1,1,9.14139679522,2017_Apr_14_0929,None,KRITL,001,31033,
,,,,,,,,"('ADD', 'TRIPLE', 'HALF', 'x', 'y')",triple,3,"(2, 6, 8)",8,8,2,4,half,ADD,0,BUUxy,,,,,0,1,1,5,,,,,,space,4.3357084188,1,0,7.87693149221,2017_Apr_14_0929,None,KRITL,001,31033,
,,,,,,,,"('ADD', 'TRIPLE', 'DOUBLE', 'DECREASE', 'x', 'y')",triple,4,"(1, 2, 6, 8)",8,8,2,2,double,ADD,decrease,BUUUxy,,,,,0,2,2,11,,,,,,space,7.29876802355,3,0,4.39024567787,2017_Apr_14_0929,None,KRITL,001,31033,
,,,,,,,,"('DECREASE', 'TIMES', 'x', 'y')",TIMES,2,"(9, 8)",8,8,3,3,0,decrease,0,UBxy,,,,,0,3,3,2,,,,,,space,1.11004321699,8,1,3.05967752266,2017_Apr_14_0929,None,KRITL,001,31033,
,,,,,,,,"('DECREASE', 'ADD', 'THIRD', 'HALF', 'x', 'y')",ADD,4,"(3, 1, 7, 6)",6,6,6,6,third,decrease,half,UBUUxy,,,,,0,4,4,12,,,,,,space,12.8500864935,6,1,8.5861149889,2017_Apr_14_0929,None,KRITL,001,31033,
,,,,,,,,"('ADD', 'DECREASE', 'THIRD', 'DOUBLE', 'x', 'y')",decrease,4,"(18, 6, 5, 9)",9,9,4,9,third,ADD,double,BUUUxy,,,,,0,5,5,10,,,,,,space,3.3950779736,9,1,7.20164370848,2017_Apr_14_0929,None,KRITL,001,31033,
,,,,,,,,"('INCREASE', 'HALF', 'THIRD', 'TIMES', 'x', 'y')",half,4,"(12, 4, 2, 3)",3,3,4,3,third,increase,TIMES,UUUBxy,,,,,0,6,6,16,,,,,,space,6.88456804532,3,1,14.5176743807,2017_Apr_14_0929,None,KRITL,001,31033,
,,,,,,,,"('HALF', 'INCREASE', 'TIMES', 'x', 'y')",increase,3,"(9, 10, 5)",5,5,3,3,TIMES,half,0,UUBxy,,,,,0,7,7,9,,,,,,space,4.29338523524,5,1,4.22705280702,2017_Apr_14_0929,None,KRITL,001,31033,
,,,,,,,,"('DECREASE', 'TRIPLE', 'SUBTRACT', 'DOUBLE', 'x', 'y')",triple,4,"(6, 3, 9, 8)",8,8,3,3,SUBTRACT,decrease,double,UUBUxy,,,,,0,8,8,15,,,,,,space,5.8308885468,2,0,6.51909768215,2017_Apr_14_0929,None,KRITL,001,31033,
,,,,,,,,"('DOUBLE', 'THIRD', 'ADD', 'x', 'y')",third,3,"(9, 3, 6)",6,6,4,5,ADD,double,0,UUBxy,,,,,0,9,9,8,,,,,,None,,None,0,,2017_Apr_14_0929,None,KRITL,001,31033,
,,,,,,,,"('ADD', 'DECREASE', 'x', 'y')",decrease,2,"(2, 7)",7,7,5,3,0,ADD,0,BUxy,,,,,0,10,10,0,,,,,,space,0.810393285472,7,1,2.56635150121,2017_Apr_14_0929,None,KRITL,001,31033,
,,,,,,,,"('ADD', 'DOUBLE', 'DECREASE', 'x', 'y')",double,3,"(1, 2, 7)",7,7,5,2,decrease,ADD,0,BUUxy,,,,,0,11,11,4,,,,,,space,1.41352349884,6,0,3.0088530262,2017_Apr_14_0929,None,KRITL,001,31033,
,,,,,,,,"('HALF', 'ADD', 'x', 'y')",ADD,2,"(12, 6)",6,6,8,4,0,half,0,UBxy,,,,,0,12,12,3,,,,,,space,1.23711950658,6,1,3.23419801146,2017_Apr_14_0929,None,KRITL,001,31033,
,,,,,,,,"('DOUBLE', 'SUBTRACT', 'INCREASE', 'x', 'y')",SUBTRACT,3,"(4, 1, 2)",2,2,3,3,increase,double,0,UBUxy,,,,,0,13,13,6,,,,,,space,1.23325136022,1,0,2.59906118797,2017_Apr_14_0929,None,KRITL,001,31033,
,,,,,,,,"('DECREASE', 'SUBTRACT', 'DOUBLE', 'THIRD', 'x', 'y')",SUBTRACT,4,"(3, 6, 4, 3)",3,3,2,9,double,decrease,third,UBUUxy,,,,,0,14,14,13,,,,,,space,5.34778215893,3,1,6.73687050756,2017_Apr_14_0929,None,KRITL,001,31033,
,,,,,,,,"('DIVIDE', 'DECREASE', 'x', 'y')",decrease,2,"(8, 2)",2,2,4,9,0,DIVIDE,0,BUxy,,,,,0,15,15,1,,,,,,space,1.31860535353,2,1,3.36140868699,2017_Apr_14_0929,None,KRITL,001,31033,
,,,,,,,,"('INCREASE', 'ADD', 'HALF', 'x', 'y')",ADD,3,"(1, 4, 5)",5,5,3,2,half,increase,0,UBUxy,,,,,0,16,16,7,,,,,,space,2.96553664625,5,1,4.16661446379,2017_Apr_14_0929,None,KRITL,001,31033,
,,,,,,,,"('DECREASE', 'DOUBLE', 'TIMES', 'THIRD', 'x', 'y')",double,4,"(1, 3, 6, 5)",5,5,3,3,TIMES,decrease,third,UUBUxy,,,,,0,17,17,14,,,,,,space,5.70246629763,5,1,7.07485053936,2017_Apr_14_0929,None,KRITL,001,31033,
,,,,,,,,"('TRIPLE', 'HALF', 'TIMES', 'x', 'y')",half,3,"(6, 3, 9)",9,9,3,2,TIMES,triple,0,UUBxy,,,,,0,0,0,9,,,,,,space,1.3315847991,2,0,6.24231891401,2017_Apr_14_0929,None,KRITL,001,31033,
,,,,,,,,"('TIMES', 'DECREASE', 'THIRD', 'DOUBLE', 'x', 'y')",decrease,4,"(6, 2, 1, 2)",2,2,2,3,third,TIMES,double,BUUUxy,,,,,0,1,1,11,,,,,,space,2.72514008163,2,1,6.87188991829,2017_Apr_14_0929,None,KRITL,001,31033,
,,,,,,,,"('THIRD', 'INCREASE', 'SUBTRACT', 'HALF', 'x', 'y')",increase,4,"(4, 2, 3, 1)",1,1,2,8,SUBTRACT,third,half,UUBUxy,,,,,0,2,2,15,,,,,,space,6.89830831153,1,1,4.85272556811,2017_Apr_14_0929,None,KRITL,001,31033,
,,,,,,,,"('INCREASE', 'HALF', 'TIMES', 'TRIPLE', 'x', 'y')",half,4,"(6, 12, 6, 7)",7,7,2,2,TIMES,increase,triple,UUBUxy,,,,,0,3,3,14,,,,,,space,6.74218995246,7,1,6.11134648099,2017_Apr_14_0929,None,KRITL,001,31033,
,,,,,,,,"('DIVIDE', 'DECREASE', 'THIRD', 'DOUBLE', 'x', 'y')",decrease,4,"(12, 4, 3, 1)",1,1,3,6,third,DIVIDE,double,BUUUxy,,,,,0,4,4,10,,,,,,space,2.98372704809,1,1,8.56511193057,2017_Apr_14_0929,None,KRITL,001,31033,
,,,,,,,,"('INCREASE', 'TIMES', 'x', 'y')",TIMES,2,"(8, 9)",9,9,4,2,0,increase,0,UBxy,,,,,0,5,5,2,,,,,,space,0.866629617201,9,1,1.70210443542,2017_Apr_14_0929,None,KRITL,001,31033,
,,,,,,,,"('ADD', 'DECREASE', 'HALF', 'x', 'y')",decrease,3,"(3, 2, 6)",6,6,4,6,half,ADD,0,BUUxy,,,,,0,6,6,4,,,,,,space,1.89522093369,6,1,3.85920654179,2017_Apr_14_0929,None,KRITL,001,31033,
,,,,,,,,"('DECREASE', 'HALF', 'TRIPLE', 'ADD', 'x', 'y')",half,4,"(4, 12, 6, 5)",5,5,2,2,triple,decrease,ADD,UUUBxy,,,,,0,7,7,16,,,,,,space,2.48319877821,3,0,8.8992668615,2017_Apr_14_0929,None,KRITL,001,31033,
,,,,,,,,"('TRIPLE', 'SUBTRACT', 'INCREASE', 'HALF', 'x', 'y')",SUBTRACT,4,"(3, 4, 1, 3)",3,3,3,6,increase,triple,half,UBUUxy,,,,,0,8,8,13,,,,,,space,6.10271638155,1,0,3.08766060261,2017_Apr_14_0929,None,KRITL,001,31033,
,,,,,,,,"('TRIPLE', 'SUBTRACT', 'x', 'y')",SUBTRACT,2,"(2, 6)",6,6,6,8,0,triple,0,UBxy,,,,,0,9,9,3,,,,,,space,1.62257803397,6,1,2.38557541519,2017_Apr_14_0929,None,KRITL,001,31033,
,,,,,,,,"('DECREASE', 'DIVIDE', 'TRIPLE', 'DOUBLE', 'x', 'y')",DIVIDE,4,"(6, 18, 2, 1)",1,1,9,3,triple,decrease,double,UBUUxy,,,,,0,10,10,12,,,,,,space,4.08433594956,2,0,14.5807755961,2017_Apr_14_0929,None,KRITL,001,31033,
,,,,,,,,"('DECREASE', 'HALF', 'DIVIDE', 'x', 'y')",half,3,"(4, 2, 1)",1,1,2,8,DIVIDE,decrease,0,UUBxy,,,,,0,11,11,8,,,,,,space,2.08716365448,1,1,2.71049306006,2017_Apr_14_0929,None,KRITL,001,31033,
,,,,,,,,"('SUBTRACT', 'DOUBLE', 'DECREASE', 'x', 'y')",double,3,"(8, 16, 7)",7,7,9,9,decrease,SUBTRACT,0,BUUxy,,,,,0,12,12,5,,,,,,space,2.42192787182,2,0,4.06856869484,2017_Apr_14_0929,None,KRITL,001,31033,
,,,,,,,,"('SUBTRACT', 'THIRD', 'x', 'y')",third,2,"(3, 1)",1,1,2,9,0,SUBTRACT,0,BUxy,,,,,0,13,13,0,,,,,,space,0.820787900768,1,1,1.95294391029,2017_Apr_14_0929,None,KRITL,001,31033,
,,,,,,,,"('INCREASE', 'TRIPLE', 'HALF', 'ADD', 'x', 'y')",triple,4,"(4, 2, 6, 7)",7,7,2,2,half,increase,ADD,UUUBxy,,,,,0,14,14,17,,,,,,space,1.66733276381,9,0,4.32416977288,2017_Apr_14_0929,None,KRITL,001,31033,
,,,,,,,,"('DOUBLE', 'TIMES', 'THIRD', 'x', 'y')",TIMES,3,"(1, 4, 8)",8,8,4,3,third,double,0,UBUxy,,,,,0,15,15,6,,,,,,space,1.40684164607,8,1,3.66630212136,2017_Apr_14_0929,None,KRITL,001,31033,
,,,,,,,,"('TIMES', 'THIRD', 'x', 'y')",third,2,"(1, 4)",4,4,4,3,0,TIMES,0,BUxy,,,,,0,16,16,1,,,,,,space,0.932685574284,4,1,1.3490703745,2017_Apr_14_0929,None,KRITL,001,31033,
,,,,,,,,"('INCREASE', 'DIVIDE', 'HALF', 'x', 'y')",DIVIDE,3,"(2, 1, 2)",2,2,2,4,half,increase,0,UBUxy,,,,,0,17,17,7,,,,,,space,1.07320956059,2,1,4.06450841855,2017_Apr_14_0929,None,KRITL,001,31033,
,,,,,,,,"('HALF', 'TIMES', 'DECREASE', 'x', 'y')",TIMES,3,"(8, 16, 8)",8,8,2,9,decrease,half,0,UBUxy,,,,,0,0,0,6,,,,,,space,1.35286187887,8,1,10.9653938611,2017_Apr_14_0929,None,KRITL,001,31033,
,,,,,,,,"('TIMES', 'HALF', 'INCREASE', 'THIRD', 'x', 'y')",half,4,"(1, 2, 1, 9)",9,9,9,3,increase,TIMES,third,BUUUxy,,,,,0,1,1,11,,,,,,space,2.05312060684,9,1,5.42466038669,2017_Apr_14_0929,None,KRITL,001,31033,
,,,,,,,,"('INCREASE', 'DIVIDE', 'TRIPLE', 'x', 'y')",DIVIDE,3,"(6, 2, 3)",3,3,3,2,triple,increase,0,UBUxy,,,,,0,2,2,7,,,,,,space,1.428816553,3,1,9.70392564536,2017_Apr_14_0929,None,KRITL,001,31033,
,,,,,,,,"('TRIPLE', 'HALF', 'ADD', 'x', 'y')",half,3,"(6, 3, 9)",9,9,3,3,ADD,triple,0,UUBxy,,,,,0,3,3,8,,,,,,space,2.38541023244,9,1,5.54407177612,2017_Apr_14_0929,None,KRITL,001,31033,
,,,,,,,,"('SUBTRACT', 'INCREASE', 'HALF', 'x', 'y')",increase,3,"(4, 5, 3)",3,3,2,8,half,SUBTRACT,0,BUUxy,,,,,0,4,4,5,,,,,,space,8.05072125723,4,0,3.8433042012,2017_Apr_14_0929,None,KRITL,001,31033,
,,,,,,,,"('HALF', 'SUBTRACT', 'DECREASE', 'TRIPLE', 'x', 'y')",SUBTRACT,4,"(15, 14, 10, 5)",5,5,4,5,decrease,half,triple,UBUUxy,,,,,0,5,5,12,,,,,,space,3.861983852,5,1,9.5695284697,2017_Apr_14_0929,None,KRITL,001,31033,
,,,,,,,,"('TRIPLE', 'INCREASE', 'SUBTRACT', 'x', 'y')",increase,3,"(1, 2, 6)",6,6,2,3,SUBTRACT,triple,0,UUBxy,,,,,0,6,6,9,,,,,,space,3.3994595164,6,1,4.5959923582,2017_Apr_14_0929,None,KRITL,001,31033,
,,,,,,,,"('DOUBLE', 'DIVIDE', 'x', 'y')",DIVIDE,2,"(1, 2)",2,2,8,8,0,double,0,UBxy,,,,,0,7,7,2,,,,,,space,0.674230544042,2,1,2.59525253539,2017_Apr_14_0929,None,KRITL,001,31033,
,,,,,,,,"('INCREASE', 'DIVIDE', 'x', 'y')",DIVIDE,2,"(4, 5)",5,5,2,8,0,increase,0,UBxy,,,,,0,8,8,3,,,,,,space,0.898860903864,5,1,1.39800506819,2017_Apr_14_0929,None,KRITL,001,31033,
,,,,,,,,"('DECREASE', 'THIRD', 'DOUBLE', 'ADD', 'x', 'y')",third,4,"(9, 18, 6, 5)",5,5,4,5,double,decrease,ADD,UUUBxy,,,,,0,9,9,16,,,,,,space,3.63603203007,5,1,7.05870602402,2017_Apr_14_0929,None,KRITL,001,31033,
,,,,,,,,"('TRIPLE', 'DOUBLE', 'SUBTRACT', 'INCREASE', 'x', 'y')",double,4,"(5, 1, 2, 6)",6,6,4,4,SUBTRACT,triple,increase,UUBUxy,,,,,0,10,10,14,,,,,,space,7.8589601675,6,1,3.4299231375,2017_Apr_14_0929,None,KRITL,001,31033,
,,,,,,,,"('ADD', 'HALF', 'x', 'y')",half,2,"(2, 7)",7,7,5,4,0,ADD,0,BUxy,,,,,0,11,11,0,,,,,,space,1.21865928292,7,1,2.43692205718,2017_Apr_14_0929,None,KRITL,001,31033,
,,,,,,,,"('DIVIDE', 'TRIPLE', 'DECREASE', 'x', 'y')",triple,3,"(6, 18, 9)",9,9,2,7,decrease,DIVIDE,0,BUUxy,,,,,0,12,12,4,,,,,,space,1.12547625657,9,1,7.35087758591,2017_Apr_14_0929,None,KRITL,001,31033,
,,,,,,,,"('THIRD', 'INCREASE', 'HALF', 'TIMES', 'x', 'y')",increase,4,"(28, 14, 15, 5)",5,5,4,7,half,third,TIMES,UUUBxy,,,,,0,13,13,17,,,,,,space,5.21787571468,5,1,8.71026698363,2017_Apr_14_0929,None,KRITL,001,31033,
,,,,,,,,"('SUBTRACT', 'TRIPLE', 'x', 'y')",triple,2,"(12, 9)",9,9,3,4,0,SUBTRACT,0,BUxy,,,,,0,14,14,1,,,,,,space,0.964202235482,9,1,2.22883447111,2017_Apr_14_0929,None,KRITL,001,31033,
,,,,,,,,"('TRIPLE', 'INCREASE', 'DIVIDE', 'DOUBLE', 'x', 'y')",increase,4,"(16, 2, 3, 9)",9,9,8,8,DIVIDE,triple,double,UUBUxy,,,,,0,15,15,15,,,,,,space,1.9718849838,9,1,8.59807639071,2017_Apr_14_0929,None,KRITL,001,31033,
,,,,,,,,"('INCREASE', 'TIMES', 'TRIPLE', 'HALF', 'x', 'y')",TIMES,4,"(1, 3, 6, 7)",7,7,2,2,triple,increase,half,UBUUxy,,,,,0,16,16,13,,,,,,space,1.50489476422,7,1,8.09914360437,2017_Apr_14_0929,None,KRITL,001,31033,
,,,,,,,,"('DIVIDE', 'DOUBLE', 'INCREASE', 'TRIPLE', 'x', 'y')",double,4,"(9, 10, 20, 5)",5,5,4,3,increase,DIVIDE,triple,BUUUxy,,,,,0,17,17,10,,,,,,space,10.6624766705,5,1,6.616597858,2017_Apr_14_0929,None,KRITL,001,31033,
,,,,,,,,"('INCREASE', 'DIVIDE', 'THIRD', 'x', 'y')",DIVIDE,3,"(3, 1, 2)",2,2,3,9,third,increase,0,UBUxy,,,,,0,0,0,7,,,,,,space,7.64706917832,2,1,5.38179825933,2017_Apr_14_0929,None,KRITL,001,31033,
,,,,,,,,"('DOUBLE', 'DECREASE', 'TRIPLE', 'DIVIDE', 'x', 'y')",decrease,4,"(1, 3, 2, 4)",4,4,4,4,triple,double,DIVIDE,UUUBxy,,,,,0,1,1,17,,,,,,space,13.6477029622,4,1,7.25048111228,2017_Apr_14_0929,None,KRITL,001,31033,
,,,,,,,,"('DIVIDE', 'DOUBLE', 'THIRD', 'x', 'y')",double,3,"(2, 4, 1)",1,1,4,6,third,DIVIDE,0,BUUxy,,,,,0,2,2,4,,,,,,space,1.41475257056,1,1,3.20494386411,2017_Apr_14_0929,None,KRITL,001,31033,
,,,,,,,,"('ADD', 'THIRD', 'INCREASE', 'HALF', 'x', 'y')",third,4,"(2, 3, 1, 7)",7,7,6,4,increase,ADD,half,BUUUxy,,,,,0,3,3,10,,,,,,space,4.80150071339,9,0,4.19905362875,2017_Apr_14_0929,None,KRITL,001,31033,
,,,,,,,,"('DECREASE', 'TIMES', 'DOUBLE', 'THIRD', 'x', 'y')",TIMES,4,"(1, 2, 8, 7)",7,7,4,3,double,decrease,third,UBUUxy,,,,,0,4,4,13,,,,,,space,1.31561526554,7,1,7.04641040706,2017_Apr_14_0929,None,KRITL,001,31033,
,,,,,,,,"('DECREASE', 'HALF', 'TRIPLE', 'DIVIDE', 'x', 'y')",half,4,"(4, 12, 6, 5)",5,5,2,8,triple,decrease,DIVIDE,UUUBxy,,,,,0,5,5,16,,,,,,space,2.89621692977,5,1,9.43011071795,2017_Apr_14_0929,None,KRITL,001,31033,
,,,,,,,,"('DOUBLE', 'TRIPLE', 'DIVIDE', 'DECREASE', 'x', 'y')",triple,4,"(8, 1, 3, 6)",6,6,8,9,DIVIDE,double,decrease,UUBUxy,,,,,0,6,6,15,,,,,,space,5.94345640033,6,1,6.97589626521,2017_Apr_14_0929,None,KRITL,001,31033,
,,,,,,,,"('DOUBLE', 'SUBTRACT', 'x', 'y')",SUBTRACT,2,"(1, 2)",2,2,7,8,0,double,0,UBxy,,,,,0,7,7,2,,,,,,space,0.917229437095,2,1,1.34872146093,2017_Apr_14_0929,None,KRITL,001,31033,
,,,,,,,,"('ADD', 'DOUBLE', 'x', 'y')",double,2,"(4, 8)",8,8,4,2,0,ADD,0,BUxy,,,,,0,8,8,0,,,,,,space,0.916790582909,8,1,2.18164574527,2017_Apr_14_0929,None,KRITL,001,31033,
,,,,,,,,"('DIVIDE', 'INCREASE', 'DOUBLE', 'THIRD', 'x', 'y')",increase,4,"(2, 4, 5, 1)",1,1,5,6,double,DIVIDE,third,BUUUxy,,,,,0,9,9,11,,,,,,space,5.24652827476,1,1,9.90835331331,2017_Apr_14_0929,None,KRITL,001,31033,
,,,,,,,,"('SUBTRACT', 'HALF', 'TRIPLE', 'x', 'y')",half,3,"(12, 6, 2)",2,2,4,4,triple,SUBTRACT,0,BUUxy,,,,,0,10,10,5,,,,,,space,2.37321855463,2,1,6.18018919727,2017_Apr_14_0929,None,KRITL,001,31033,
,,,,,,,,"('DECREASE', 'ADD', 'DOUBLE', 'THIRD', 'x', 'y')",ADD,4,"(3, 6, 10, 9)",9,9,4,9,double,decrease ,third,UBUUxy,,,,,0,11,11,12,,,,,,space,3.82455910728,6,0,8.72750513486,2017_Apr_14_0929,None,KRITL,001,31033,
,,,,,,,,"('DOUBLE', 'TRIPLE', 'SUBTRACT', 'x', 'y')",triple,3,"(1, 3, 6)",6,6,3,4,SUBTRACT,double,0,UUBxy,,,,,0,12,12,9,,,,,,space,3.64802072904,6,1,2.29455201351,2017_Apr_14_0929,None,KRITL,001,31033,
,,,,,,,,"('HALF', 'SUBTRACT', 'TRIPLE', 'x', 'y')",SUBTRACT,3,"(9, 2, 1)",1,1,7,3,triple,half,0,UBUxy,,,,,0,13,13,6,,,,,,space,4.90206027002,1,1,2.54752731553,2017_Apr_14_0929,None,KRITL,001,31033,
,,,,,,,,"('DIVIDE', 'DOUBLE', 'x', 'y')",double,2,"(12, 2)",2,2,6,6,0,DIVIDE,0,BUxy,,,,,0,14,14,1,,,,,,space,1.18634260516,2,1,2.43590226359,2017_Apr_14_0929,None,KRITL,001,31033,
,,,,,,,,"('DOUBLE', 'DECREASE', 'SUBTRACT', 'x', 'y')",decrease,3,"(5, 4, 8)",8,8,2,7,SUBTRACT,double,0,UUBxy,,,,,0,15,15,8,,,,,,space,3.18881824682,8,1,3.621130935,2017_Apr_14_0929,None,KRITL,001,31033,
,,,,,,,,"('DECREASE', 'THIRD', 'TIMES', 'HALF', 'x', 'y')",third,4,"(2, 12, 4, 3)",3,3,6,4,TIMES,decrease,half,UUBUxy,,,,,0,16,16,14,,,,,,space,2.87059505339,3,1,5.3612708014,2017_Apr_14_0929,None,KRITL,001,31033,
,,,,,,,,"('HALF', 'TIMES', 'x', 'y')",TIMES,2,"(16, 8)",8,8,4,4,0,half,0,UBxy,,,,,0,17,17,3,,,,,,space,0.758529747429,8,1,1.68045114493,2017_Apr_14_0929,None,KRITL,001,31033,
,,,,,,,,"('TIMES', 'INCREASE', 'x', 'y')",increase,2,"(3, 6)",6,6,2,2,0,TIMES,0,BUxy,,,,,0,0,0,1,,,,,,space,0.833713102038,6,1,2.32477101014,2017_Apr_14_0929,None,KRITL,001,31033,
,,,,,,,,"('THIRD', 'TIMES', 'DECREASE', 'x', 'y')",TIMES,3,"(3, 15, 5)",5,5,5,4,decrease,third,0,UBUxy,,,,,0,1,1,7,,,,,,space,1.22066982309,5,1,3.99005473781,2017_Apr_14_0929,None,KRITL,001,31033,
,,,,,,,,"('THIRD', 'DECREASE', 'TIMES', 'x', 'y')",decrease,3,"(25, 24, 8)",8,8,5,5,TIMES,third,0,UUBxy,,,,,0,2,2,8,,,,,,space,0.934086478082,8,1,7.42567038129,2017_Apr_14_0929,None,KRITL,001,31033,
,,,,,,,,"('THIRD', 'ADD', 'INCREASE', 'x', 'y')",ADD,3,"(8, 15, 5)",5,5,7,7,increase,third,0,UBUxy,,,,,0,3,3,6,,,,,,space,1.04224829137,5,1,3.23823029065,2017_Apr_14_0929,None,KRITL,001,31033,
,,,,,,,,"('THIRD', 'DOUBLE', 'ADD', 'INCREASE', 'x', 'y')",double,4,"(10, 12, 24, 8)",8,8,2,9,ADD,third,increase,UUBUxy,,,,,0,4,4,14,,,,,,space,1.09115533796,8,1,5.57156035767,2017_Apr_14_0929,None,KRITL,001,31033,
,,,,,,,,"('THIRD', 'ADD', 'x', 'y')",ADD,2,"(9, 3)",3,3,5,4,0,third,0,UBxy,,,,,0,5,5,2,,,,,,space,0.54758225978,3,1,5.9893387125,2017_Apr_14_0929,None,KRITL,001,31033,
,,,,,,,,"('TIMES', 'DECREASE', 'x', 'y')",decrease,2,"(2, 4)",4,4,2,3,0,TIMES,0,BUxy,,,,,0,6,6,0,,,,,,space,0.8831422941,4,1,1.36523098816,2017_Apr_14_0929,None,KRITL,001,31033,
,,,,,,,,"('TIMES', 'THIRD', 'HALF', 'x', 'y')",third,3,"(3, 1, 5)",5,5,5,6,half,TIMES,0,BUUxy,,,,,0,7,7,5,,,,,,space,1.69733023358,5,1,3.38259337639,2017_Apr_14_0929,None,KRITL,001,31033,
,,,,,,,,"('TIMES', 'DECREASE', 'HALF', 'x', 'y')",decrease,3,"(4, 3, 9)",9,9,3,8,half,TIMES,0,BUUxy,,,,,0,8,8,4,,,,,,space,1.03373752948,9,1,3.61493868116,2017_Apr_14_0929,None,KRITL,001,31033,
,,,,,,,,"('THIRD', 'SUBTRACT', 'x', 'y')",SUBTRACT,2,"(3, 1)",1,1,2,5,0,third,0,UBxy,,,,,0,9,9,3,,,,,,space,0.66468494013,1,1,1.97502205646,2017_Apr_14_0929,None,KRITL,001,31033,
,,,,,,,,"('TRIPLE', 'HALF', 'ADD', 'DECREASE', 'x', 'y')",half,4,"(1, 4, 2, 6)",6,6,3,2,ADD,triple,decrease,UUBUxy,,,,,0,10,10,15,,,,,,space,3.93656876904,6,1,5.98909233819,2017_Apr_14_0929,None,KRITL,001,31033,
,,,,,,,,"('TIMES', 'INCREASE', 'THIRD', 'DOUBLE', 'x', 'y')",increase,4,"(6, 2, 3, 9)",9,9,3,3,third,TIMES,double,BUUUxy,,,,,0,11,11,11,,,,,,space,4.51644250922,9,1,5.06649411132,2017_Apr_14_0929,None,KRITL,001,31033,
,,,,,,,,"('TRIPLE', 'SUBTRACT', 'DOUBLE', 'DECREASE', 'x', 'y')",SUBTRACT,4,"(2, 4, 1, 3)",3,3,3,3,double,triple,decrease,UBUUxy,,,,,0,12,12,13,,,,,,space,8.96041668049,3,1,4.50037358602,2017_Apr_14_0929,None,KRITL,001,31033,
,,,,,,,,"('TRIPLE', 'DECREASE', 'HALF', 'TIMES', 'x', 'y')",decrease,4,"(6, 3, 2, 6)",6,6,2,3,half,triple,TIMES,UUUBxy,,,,,0,13,13,17,,,,,,space,1.56172148435,6,1,4.90145623306,2017_Apr_14_0929,None,KRITL,001,31033,
,,,,,,,,"('SUBTRACT', 'HALF', 'INCREASE', 'TRIPLE', 'x', 'y')",half,4,"(15, 16, 8, 3)",3,3,5,5,increase,SUBTRACT,triple,BUUUxy,,,,,0,14,14,10,,,,,,space,1.69683538523,3,1,7.31312457545,2017_Apr_14_0929,None,KRITL,001,31033,
,,,,,,,,"('THIRD', 'INCREASE', 'HALF', 'DIVIDE', 'x', 'y')",increase,4,"(4, 2, 3, 1)",1,1,2,8,half,third,DIVIDE,UUUBxy,,,,,0,15,15,16,,,,,,space,3.6362605562,1,1,3.29794595935,2017_Apr_14_0929,None,KRITL,001,31033,
,,,,,,,,"('TRIPLE', 'HALF', 'DIVIDE', 'x', 'y')",half,3,"(2, 1, 3)",3,3,2,4,DIVIDE,triple,0,UUBxy,,,,,0,16,16,9,,,,,,space,0.757835069933,3,1,4.79155790093,2017_Apr_14_0929,None,KRITL,001,31033,
,,,,,,,,"('INCREASE', 'DIVIDE', 'TRIPLE', 'DOUBLE', 'x', 'y')",DIVIDE,4,"(6, 18, 3, 4)",4,4,6,3,triple,increase,double,UBUUxy,,,,,0,17,17,12,,,,,,space,2.81806623479,4,1,10.1808065328,2017_Apr_14_0929,None,KRITL,001,31033,
,,,,,,,,"('DECREASE', 'TRIPLE', 'DIVIDE', 'DOUBLE', 'x', 'y')",triple,4,"(6, 2, 6, 5)",5,5,3,3,DIVIDE,decrease,double,UUBUxy,,,,,0,0,0,14,,,,,,space,6.2516961855,7,0,10.1199828798,2017_Apr_14_0929,None,KRITL,001,31033,
,,,,,,,,"('DOUBLE', 'DIVIDE', 'TRIPLE', 'INCREASE', 'x', 'y')",DIVIDE,4,"(5, 15, 3, 6)",6,6,5,4,triple,double,increase,UBUUxy,,,,,0,1,1,12,,,,,,space,4.91708350234,6,1,6.92988656633,2017_Apr_14_0929,None,KRITL,001,31033,
,,,,,,,,"('THIRD', 'DIVIDE', 'DECREASE', 'x', 'y')",DIVIDE,3,"(6, 3, 1)",1,1,2,7,decrease,third,0,UBUxy,,,,,0,2,2,6,,,,,,space,0.964346070483,1,1,4.05059422049,2017_Apr_14_0929,None,KRITL,001,31033,
,,,,,,,,"('DOUBLE', 'THIRD', 'TIMES', 'x', 'y')",third,3,"(12, 4, 8)",8,8,6,2,TIMES,double,0,UUBxy,,,,,0,3,3,9,,,,,,space,2.27667097937,8,1,6.31122882327,2017_Apr_14_0929,None,KRITL,001,31033,
,,,,,,,,"('TIMES', 'HALF', 'INCREASE', 'x', 'y')",half,3,"(6, 3, 9)",9,9,3,5,increase,TIMES,0,BUUxy,,,,,0,4,4,5,,,,,,space,3.68895945707,9,1,3.44095258659,2017_Apr_14_0929,None,KRITL,001,31033,
,,,,,,,,"('THIRD', 'DIVIDE', 'x', 'y')",DIVIDE,2,"(3, 1)",1,1,2,6,0,third,0,UBxy,,,,,0,5,5,3,,,,,,space,1.09210513881,1,1,2.93566831303,2017_Apr_14_0929,None,KRITL,001,31033,
,,,,,,,,"('SUBTRACT', 'TRIPLE', 'DECREASE', 'DOUBLE', 'x', 'y')",triple,4,"(4, 3, 9, 1)",1,1,8,2,decrease,SUBTRACT,double,BUUUxy,,,,,0,6,6,11,,,,,,space,6.45136714986,8,0,14.8065706343,2017_Apr_14_0929,None,KRITL,001,31033,
,,,,,,,,"('INCREASE', 'SUBTRACT', 'x', 'y')",SUBTRACT,2,"(3, 4)",4,4,3,6,0,increase,0,UBxy,,,,,0,7,7,2,,,,,,space,5.76260962168,4,1,1.96928370526,2017_Apr_14_0929,None,KRITL,001,31033,
,,,,,,,,"('SUBTRACT', 'DOUBLE', 'TRIPLE', 'DECREASE', 'x', 'y')",double,4,"(2, 6, 12, 8)",8,8,4,3,triple,SUBTRACT,decrease,BUUUxy,,,,,0,8,8,10,,,,,,space,3.76709440371,8,1,9.475812099,2017_Apr_14_0929,None,KRITL,001,31033,
,,,,,,,,"('TIMES', 'DOUBLE', 'x', 'y')",double,2,"(4, 8)",8,8,2,2,0,TIMES,0,BUxy,,,,,0,9,9,1,,,,,,space,0.91607385769,8,1,1.87604188506,2017_Apr_14_0929,None,KRITL,001,31033,
,,,,,,,,"('INCREASE', 'ADD', 'HALF', 'TRIPLE', 'x', 'y')",ADD,4,"(6, 3, 6, 7)",7,7,3,2,half,increase,triple,UBUUxy,,,,,0,10,10,13,,,,,,space,8.53272001067,7,1,8.16645698022,2017_Apr_14_0929,None,KRITL,001,31033,
,,,,,,,,"('THIRD', 'TIMES', 'HALF', 'x', 'y')",TIMES,3,"(3, 18, 6)",6,6,6,6,half,third,0,UBUxy,,,,,0,11,11,7,,,,,,space,1.00914839536,6,1,3.62103469504,2017_Apr_14_0929,None,KRITL,001,31033,
,,,,,,,,"('THIRD', 'DECREASE', 'TIMES', 'HALF', 'x', 'y')",decrease,4,"(4, 16, 15, 5)",5,5,4,8,TIMES,third,half,UUBUxy,,,,,0,12,12,15,,,,,,space,6.76007903577,5,1,6.14958209111,2017_Apr_14_0929,None,KRITL,001,31033,
,,,,,,,,"('DOUBLE', 'DECREASE', 'ADD', 'x', 'y')",decrease,3,"(4, 3, 6)",6,6,2,2,ADD,double,0,UUBxy,,,,,0,13,13,8,,,,,,space,0.743787185813,6,1,6.01771375159,2017_Apr_14_0929,None,KRITL,001,31033,
,,,,,,,,"('DIVIDE', 'THIRD', 'x', 'y')",third,2,"(3, 1)",1,1,3,9,0,DIVIDE,0,BUxy,,,,,0,14,14,0,,,,,,space,0.613908738625,1,1,1.94202224998,2017_Apr_14_0929,None,KRITL,001,31033,
,,,,,,,,"('SUBTRACT', 'TRIPLE', 'DECREASE', 'x', 'y')",triple,3,"(4, 12, 3)",3,3,9,5,decrease,SUBTRACT,0,BUUxy,,,,,0,15,15,4,,,,,,space,1.84275650835,3,1,6.53057263474,2017_Apr_14_0929,None,KRITL,001,31033,
,,,,,,,,"('DECREASE', 'TRIPLE', 'HALF', 'SUBTRACT', 'x', 'y')",triple,4,"(4, 2, 6, 5)",5,5,2,6,half,decrease,SUBTRACT,UUUBxy,,,,,0,16,16,16,,,,,,space,4.43642685885,5,1,4.64366228384,2017_Apr_14_0929,None,KRITL,001,31033,
,,,,,,,,"('HALF', 'TRIPLE', 'INCREASE', 'SUBTRACT', 'x', 'y')",triple,4,"(1, 2, 6, 3)",3,3,2,3,increase,half,SUBTRACT,UUUBxy,,,,,0,17,17,17,,,,,,space,2.82041273994,3,1,6.1143582667,2017_Apr_14_0929,None,KRITL,001,31033,
