operationc,operationb,operationa,correctresponse,valuey,operationd,condition,valuex,Rule,Operatora,Length,Intermediate,CorrectResponse,Result,Y,X,Operatorc,Operatorb,Operatord,Structure,practice_trials.thisRepN,practice_trials.thisTrialN,practice_trials.thisN,practice_trials.thisIndex,block.thisRepN,block.thisTrialN,block.thisN,block.thisIndex,practice_encoding.keys,practice_encoding.rt,practice_execution.keys,practice_execution.corr,practice_execution.rt,encoding.keys,encoding.rt,execution.keys,execution.corr,execution.rt,date,frameRate,expName,session,participant,
increase,DIVIDE,double,9,8,triple,4,8,,,,,,,,,,,,,0,0,0,5,,,,,['space'],[8.096916436916217],None,0,,,,,,,2017_Apr_28_0911,None,KRITL,001,31046,
increase,DIVIDE,triple,3,3,0,3,2,,,,,,,,,,,,,0,1,1,4,,,,,['space'],[5.79903522063978],3,1,10.1122154405,,,,,,2017_Apr_28_0911,None,KRITL,001,31046,
0,decrease,TIMES,8,3,0,2,3,,,,,,,,,,,,,0,2,2,1,,,,,['space'],[4.810702303191647],8,1,1.90669098683,,,,,,2017_Apr_28_0911,None,KRITL,001,31046,
ADD,triple ,half,8,2,0,3,4,,,,,,,,,,,,,0,3,3,3,,,,,['space'],[6.254276466323063],8,1,4.80105451006,,,,,,2017_Apr_28_0911,None,KRITL,001,31046,
0,ADD,decrease,7,5,0,2,3,,,,,,,,,,,,,0,4,4,0,,,,,['space'],[2.040244400501251],7,1,3.24151049857,,,,,,2017_Apr_28_0911,None,KRITL,001,31046,
0,ADD,half,7,5,0,2,4,,,,,,,,,,,,,0,5,5,2,,,,,['space'],[2.377351623494178],7,1,3.51024500607,,,,,,2017_Apr_28_0911,None,KRITL,001,31046,
,,,,,,,,"('SUBTRACT', 'TRIPLE', 'x', 'y')",triple,2,"(12, 9)",9,9,3,4,0,SUBTRACT,0,BUxy,,,,,0,0,0,1,,,,,,space,12.5284175598,9,1,3.52511845389,2017_Apr_28_0911,None,KRITL,001,31046,
,,,,,,,,"('DIVIDE', 'DOUBLE', 'INCREASE', 'TRIPLE', 'x', 'y')",double,4,"(9, 10, 20, 5)",5,5,4,3,increase,DIVIDE,triple,BUUUxy,,,,,0,1,1,10,,,,,,space,5.78277696716,5,1,7.75005188212,2017_Apr_28_0911,None,KRITL,001,31046,
,,,,,,,,"('TRIPLE', 'INCREASE', 'DIVIDE', 'DOUBLE', 'x', 'y')",increase,4,"(16, 2, 3, 9)",9,9,8,8,DIVIDE,triple,double,UUBUxy,,,,,0,2,2,15,,,,,,space,9.99086000375,9,1,5.89073685161,2017_Apr_28_0911,None,KRITL,001,31046,
,,,,,,,,"('DIVIDE', 'TRIPLE', 'DECREASE', 'x', 'y')",triple,3,"(6, 18, 9)",9,9,2,7,decrease,DIVIDE,0,BUUxy,,,,,0,3,3,4,,,,,,space,4.33596529206,9,1,7.97370654391,2017_Apr_28_0911,None,KRITL,001,31046,
,,,,,,,,"('DOUBLE', 'DIVIDE', 'x', 'y')",DIVIDE,2,"(1, 2)",2,2,8,8,0,double,0,UBxy,,,,,0,4,4,2,,,,,,space,2.03850473207,2,1,1.95951342466,2017_Apr_28_0911,None,KRITL,001,31046,
,,,,,,,,"('INCREASE', 'DIVIDE', 'TRIPLE', 'x', 'y')",DIVIDE,3,"(6, 2, 3)",3,3,3,2,triple,increase,0,UBUxy,,,,,0,5,5,7,,,,,,space,6.09986872878,3,1,6.50060596177,2017_Apr_28_0911,None,KRITL,001,31046,
,,,,,,,,"('THIRD', 'INCREASE', 'HALF', 'TIMES', 'x', 'y')",increase,4,"(28, 14, 15, 5)",5,5,4,7,half,third,TIMES,UUUBxy,,,,,0,6,6,17,,,,,,space,10.7836714739,5,1,14.0567140318,2017_Apr_28_0911,None,KRITL,001,31046,
,,,,,,,,"('HALF', 'SUBTRACT', 'DECREASE', 'TRIPLE', 'x', 'y')",SUBTRACT,4,"(15, 14, 10, 5)",5,5,4,5,decrease,half,triple,UBUUxy,,,,,0,7,7,12,,,,,,space,11.2038820749,5,1,5.99291883875,2017_Apr_28_0911,None,KRITL,001,31046,
,,,,,,,,"('INCREASE', 'TIMES', 'TRIPLE', 'HALF', 'x', 'y')",TIMES,4,"(1, 3, 6, 7)",7,7,2,2,triple,increase,half,UBUUxy,,,,,0,8,8,13,,,,,,space,10.2573417965,7,1,12.2643106191,2017_Apr_28_0911,None,KRITL,001,31046,
,,,,,,,,"('SUBTRACT', 'INCREASE', 'HALF', 'x', 'y')",increase,3,"(4, 5, 3)",3,3,2,8,half,SUBTRACT,0,BUUxy,,,,,0,9,9,5,,,,,,space,3.69875248522,3,1,8.48637504666,2017_Apr_28_0911,None,KRITL,001,31046,
,,,,,,,,"('TIMES', 'HALF', 'INCREASE', 'THIRD', 'x', 'y')",half,4,"(1, 2, 1, 9)",9,9,9,3,increase,TIMES,third,BUUUxy,,,,,0,10,10,11,,,,,,space,9.71406898694,1,0,15.7972269594,2017_Apr_28_0911,None,KRITL,001,31046,
,,,,,,,,"('DECREASE', 'THIRD', 'DOUBLE', 'ADD', 'x', 'y')",third,4,"(9, 18, 6, 5)",5,5,4,5,double,decrease,ADD,UUUBxy,,,,,0,11,11,16,,,,,,None,,None,0,,2017_Apr_28_0911,None,KRITL,001,31046,
,,,,,,,,"('INCREASE', 'DIVIDE', 'x', 'y')",DIVIDE,2,"(4, 5)",5,5,2,8,0,increase,0,UBxy,,,,,0,12,12,3,,,,,,space,3.79022348998,5,1,2.99824598292,2017_Apr_28_0911,None,KRITL,001,31046,
,,,,,,,,"('TRIPLE', 'DOUBLE', 'SUBTRACT', 'INCREASE', 'x', 'y')",double,4,"(5, 1, 2, 6)",6,6,4,4,SUBTRACT,triple,increase,UUBUxy,,,,,0,13,13,14,,,,,,space,10.1192514561,6,1,3.20664468664,2017_Apr_28_0911,None,KRITL,001,31046,
,,,,,,,,"('ADD', 'HALF', 'x', 'y')",half,2,"(2, 7)",7,7,5,4,0,ADD,0,BUxy,,,,,0,14,14,0,,,,,,space,2.00776603958,7,1,5.39641973353,2017_Apr_28_0911,None,KRITL,001,31046,
,,,,,,,,"('TRIPLE', 'HALF', 'ADD', 'x', 'y')",half,3,"(6, 3, 9)",9,9,3,3,ADD,triple,0,UUBxy,,,,,0,15,15,8,,,,,,space,7.10508353449,9,1,6.43508964824,2017_Apr_28_0911,None,KRITL,001,31046,
,,,,,,,,"('TRIPLE', 'INCREASE', 'SUBTRACT', 'x', 'y')",increase,3,"(1, 2, 6)",6,6,2,3,SUBTRACT,triple,0,UUBxy,,,,,0,16,16,9,,,,,,space,4.11443840829,6,1,4.40652527893,2017_Apr_28_0911,None,KRITL,001,31046,
,,,,,,,,"('HALF', 'TIMES', 'DECREASE', 'x', 'y')",TIMES,3,"(8, 16, 8)",8,8,2,9,decrease,half,0,UBUxy,,,,,0,17,17,6,,,,,,space,5.05709024263,8,1,12.2936330095,2017_Apr_28_0911,None,KRITL,001,31046,
,,,,,,,,"('ADD', 'DECREASE', 'HALF', 'x', 'y')",decrease,3,"(3, 2, 6)",6,6,4,6,half,ADD,0,BUUxy,,,,,0,0,0,4,,,,,,space,8.06660784944,6,1,4.83995260089,2017_Apr_28_0911,None,KRITL,001,31046,
,,,,,,,,"('TIMES', 'THIRD', 'x', 'y')",third,2,"(1, 4)",4,4,4,3,0,TIMES,0,BUxy,,,,,0,1,1,1,,,,,,space,6.24336565472,4,1,4.06681537791,2017_Apr_28_0911,None,KRITL,001,31046,
,,,,,,,,"('TRIPLE', 'HALF', 'TIMES', 'x', 'y')",half,3,"(6, 3, 9)",9,9,3,2,TIMES,triple,0,UUBxy,,,,,0,2,2,9,,,,,,space,9.82219650364,9,1,12.8847650748,2017_Apr_28_0911,None,KRITL,001,31046,
,,,,,,,,"('DECREASE', 'HALF', 'TRIPLE', 'ADD', 'x', 'y')",half,4,"(4, 12, 6, 5)",5,5,2,2,triple,decrease,ADD,UUUBxy,,,,,0,3,3,16,,,,,,space,8.72517997748,5,1,11.0615221802,2017_Apr_28_0911,None,KRITL,001,31046,
,,,,,,,,"('SUBTRACT', 'THIRD', 'x', 'y')",third,2,"(3, 1)",1,1,2,9,0,SUBTRACT,0,BUxy,,,,,0,4,4,0,,,,,,space,2.44877916994,1,1,7.1859219491,2017_Apr_28_0911,None,KRITL,001,31046,
,,,,,,,,"('DECREASE', 'DIVIDE', 'TRIPLE', 'DOUBLE', 'x', 'y')",DIVIDE,4,"(6, 18, 2, 1)",1,1,9,3,triple,decrease,double,UBUUxy,,,,,0,5,5,12,,,,,,space,12.6158447368,1,1,10.1287092192,2017_Apr_28_0911,None,KRITL,001,31046,
,,,,,,,,"('TIMES', 'DECREASE', 'THIRD', 'DOUBLE', 'x', 'y')",decrease,4,"(6, 2, 1, 2)",2,2,2,3,third,TIMES,double,BUUUxy,,,,,0,6,6,11,,,,,,space,15.0468037659,2,1,7.57152641122,2017_Apr_28_0911,None,KRITL,001,31046,
,,,,,,,,"('INCREASE', 'TIMES', 'x', 'y')",TIMES,2,"(8, 9)",9,9,4,2,0,increase,0,UBxy,,,,,0,7,7,2,,,,,,space,2.66014171415,9,1,1.79729520227,2017_Apr_28_0911,None,KRITL,001,31046,
,,,,,,,,"('INCREASE', 'TRIPLE', 'HALF', 'ADD', 'x', 'y')",triple,4,"(4, 2, 6, 7)",7,7,2,2,half,increase,ADD,UUUBxy,,,,,0,8,8,17,,,,,,space,11.9749055186,7,1,6.56792248716,2017_Apr_28_0911,None,KRITL,001,31046,
,,,,,,,,"('TRIPLE', 'SUBTRACT', 'INCREASE', 'HALF', 'x', 'y')",SUBTRACT,4,"(3, 4, 1, 3)",3,3,3,6,increase,triple,half,UBUUxy,,,,,0,9,9,13,,,,,,space,11.5093707971,3,1,7.23901700857,2017_Apr_28_0911,None,KRITL,001,31046,
,,,,,,,,"('DIVIDE', 'DECREASE', 'THIRD', 'DOUBLE', 'x', 'y')",decrease,4,"(12, 4, 3, 1)",1,1,3,6,third,DIVIDE,double,BUUUxy,,,,,0,10,10,10,,,,,,space,10.4575814514,6,0,14.0025638323,2017_Apr_28_0911,None,KRITL,001,31046,
,,,,,,,,"('THIRD', 'INCREASE', 'SUBTRACT', 'HALF', 'x', 'y')",increase,4,"(4, 2, 3, 1)",1,1,2,8,SUBTRACT,third,half,UUBUxy,,,,,0,11,11,15,,,,,,space,15.8968804604,1,1,7.5217168089,2017_Apr_28_0911,None,KRITL,001,31046,
,,,,,,,,"('DOUBLE', 'TIMES', 'THIRD', 'x', 'y')",TIMES,3,"(1, 4, 8)",8,8,4,3,third,double,0,UBUxy,,,,,0,12,12,6,,,,,,space,3.42724381713,8,1,5.36749700154,2017_Apr_28_0911,None,KRITL,001,31046,
,,,,,,,,"('TRIPLE', 'SUBTRACT', 'x', 'y')",SUBTRACT,2,"(2, 6)",6,6,6,8,0,triple,0,UBxy,,,,,0,13,13,3,,,,,,space,8.46771114436,6,1,2.43767762836,2017_Apr_28_0911,None,KRITL,001,31046,
,,,,,,,,"('INCREASE', 'DIVIDE', 'HALF', 'x', 'y')",DIVIDE,3,"(2, 1, 2)",2,2,2,4,half,increase,0,UBUxy,,,,,0,14,14,7,,,,,,space,3.46250718739,2,1,3.74819077621,2017_Apr_28_0911,None,KRITL,001,31046,
,,,,,,,,"('INCREASE', 'HALF', 'TIMES', 'TRIPLE', 'x', 'y')",half,4,"(6, 12, 6, 7)",7,7,2,2,TIMES,increase,triple,UUBUxy,,,,,0,15,15,14,,,,,,space,8.83893560688,7,1,9.8607166342,2017_Apr_28_0911,None,KRITL,001,31046,
,,,,,,,,"('DECREASE', 'HALF', 'DIVIDE', 'x', 'y')",half,3,"(4, 2, 1)",1,1,2,8,DIVIDE,decrease,0,UUBxy,,,,,0,16,16,8,,,,,,space,5.55588724324,1,1,4.55087016663,2017_Apr_28_0911,None,KRITL,001,31046,
,,,,,,,,"('SUBTRACT', 'DOUBLE', 'DECREASE', 'x', 'y')",double,3,"(8, 16, 7)",7,7,9,9,decrease,SUBTRACT,0,BUUxy,,,,,0,17,17,5,,,,,,space,2.98483573226,7,1,8.05133124348,2017_Apr_28_0911,None,KRITL,001,31046,
,,,,,,,,"('THIRD', 'INCREASE', 'HALF', 'DIVIDE', 'x', 'y')",increase,4,"(4, 2, 3, 1)",1,1,2,8,half,third,DIVIDE,UUUBxy,,,,,0,0,0,16,,,,,,space,13.3446653842,1,1,9.66894049617,2017_Apr_28_0911,None,KRITL,001,31046,
,,,,,,,,"('THIRD', 'TIMES', 'DECREASE', 'x', 'y')",TIMES,3,"(3, 15, 5)",5,5,5,4,decrease,third,0,UBUxy,,,,,0,1,1,7,,,,,,space,9.07686527912,5,1,4.69343688991,2017_Apr_28_0911,None,KRITL,001,31046,
,,,,,,,,"('SUBTRACT', 'HALF', 'INCREASE', 'TRIPLE', 'x', 'y')",half,4,"(15, 16, 8, 3)",3,3,5,5,increase,SUBTRACT,triple,BUUUxy,,,,,0,2,2,10,,,,,,space,8.66134278895,5,0,12.1183125041,2017_Apr_28_0911,None,KRITL,001,31046,
,,,,,,,,"('THIRD', 'DOUBLE', 'ADD', 'INCREASE', 'x', 'y')",double,4,"(10, 12, 24, 8)",8,8,2,9,ADD,third,increase,UUBUxy,,,,,0,3,3,14,,,,,,space,17.7639009869,8,1,7.54058788973,2017_Apr_28_0911,None,KRITL,001,31046,
,,,,,,,,"('INCREASE', 'DIVIDE', 'TRIPLE', 'DOUBLE', 'x', 'y')",DIVIDE,4,"(6, 18, 3, 4)",4,4,6,3,triple,increase,double,UBUUxy,,,,,0,4,4,12,,,,,,space,8.37267191173,4,1,16.6639538663,2017_Apr_28_0911,None,KRITL,001,31046,
,,,,,,,,"('TIMES', 'DECREASE', 'HALF', 'x', 'y')",decrease,3,"(4, 3, 9)",9,9,3,8,half,TIMES,0,BUUxy,,,,,0,5,5,4,,,,,,space,7.54407947534,9,1,4.64136407361,2017_Apr_28_0911,None,KRITL,001,31046,
,,,,,,,,"('TIMES', 'DECREASE', 'x', 'y')",decrease,2,"(2, 4)",4,4,2,3,0,TIMES,0,BUxy,,,,,0,6,6,0,,,,,,space,2.50600449834,4,1,4.28825407056,2017_Apr_28_0911,None,KRITL,001,31046,
,,,,,,,,"('TIMES', 'THIRD', 'HALF', 'x', 'y')",third,3,"(3, 1, 5)",5,5,5,6,half,TIMES,0,BUUxy,,,,,0,7,7,5,,,,,,space,6.90049453336,5,1,4.2139904201,2017_Apr_28_0911,None,KRITL,001,31046,
,,,,,,,,"('TRIPLE', 'SUBTRACT', 'DOUBLE', 'DECREASE', 'x', 'y')",SUBTRACT,4,"(2, 4, 1, 3)",3,3,3,3,double,triple,decrease,UBUUxy,,,,,0,8,8,13,,,,,,space,14.614815844,3,1,11.9242486546,2017_Apr_28_0911,None,KRITL,001,31046,
,,,,,,,,"('THIRD', 'ADD', 'x', 'y')",ADD,2,"(9, 3)",3,3,5,4,0,third,0,UBxy,,,,,0,9,9,2,,,,,,space,3.60519849765,3,1,2.79285801528,2017_Apr_28_0911,None,KRITL,001,31046,
,,,,,,,,"('TIMES', 'INCREASE', 'THIRD', 'DOUBLE', 'x', 'y')",increase,4,"(6, 2, 3, 9)",9,9,3,3,third,TIMES,double,BUUUxy,,,,,0,10,10,11,,,,,,space,12.4531554631,9,1,5.7819930492,2017_Apr_28_0911,None,KRITL,001,31046,
,,,,,,,,"('THIRD', 'SUBTRACT', 'x', 'y')",SUBTRACT,2,"(3, 1)",1,1,2,5,0,third,0,UBxy,,,,,0,11,11,3,,,,,,space,1.99043409806,1,1,5.7671059526,2017_Apr_28_0911,None,KRITL,001,31046,
,,,,,,,,"('THIRD', 'DECREASE', 'TIMES', 'x', 'y')",decrease,3,"(25, 24, 8)",8,8,5,5,TIMES,third,0,UUBxy,,,,,0,12,12,8,,,,,,space,10.2551104291,8,1,4.61624824442,2017_Apr_28_0911,None,KRITL,001,31046,
,,,,,,,,"('TRIPLE', 'HALF', 'DIVIDE', 'x', 'y')",half,3,"(2, 1, 3)",3,3,2,4,DIVIDE,triple,0,UUBxy,,,,,0,13,13,9,,,,,,space,13.2397246347,3,1,3.01037326758,2017_Apr_28_0911,None,KRITL,001,31046,
,,,,,,,,"('THIRD', 'ADD', 'INCREASE', 'x', 'y')",ADD,3,"(8, 15, 5)",5,5,7,7,increase,third,0,UBUxy,,,,,0,14,14,6,,,,,,space,5.99123201496,5,1,4.74129509577,2017_Apr_28_0911,None,KRITL,001,31046,
,,,,,,,,"('TRIPLE', 'DECREASE', 'HALF', 'TIMES', 'x', 'y')",decrease,4,"(6, 3, 2, 6)",6,6,2,3,half,triple,TIMES,UUUBxy,,,,,0,15,15,17,,,,,,space,11.7982303046,6,1,9.96871116501,2017_Apr_28_0911,None,KRITL,001,31046,
,,,,,,,,"('TIMES', 'INCREASE', 'x', 'y')",increase,2,"(3, 6)",6,6,2,2,0,TIMES,0,BUxy,,,,,0,16,16,1,,,,,,space,7.61073386995,6,1,2.91288289079,2017_Apr_28_0911,None,KRITL,001,31046,
,,,,,,,,"('TRIPLE', 'HALF', 'ADD', 'DECREASE', 'x', 'y')",half,4,"(1, 4, 2, 6)",6,6,3,2,ADD,triple,decrease,UUBUxy,,,,,0,17,17,15,,,,,,space,13.5404685521,6,1,7.62000160292,2017_Apr_28_0911,None,KRITL,001,31046,
,,,,,,,,"('DIVIDE', 'THIRD', 'x', 'y')",third,2,"(3, 1)",1,1,3,9,0,DIVIDE,0,BUxy,,,,,0,0,0,0,,,,,,space,2.92231300659,1,1,2.49981574435,2017_Apr_28_0911,None,KRITL,001,31046,
,,,,,,,,"('SUBTRACT', 'TRIPLE', 'DECREASE', 'x', 'y')",triple,3,"(4, 12, 3)",3,3,9,5,decrease,SUBTRACT,0,BUUxy,,,,,0,1,1,4,,,,,,space,7.39587694034,3,1,3.57825795887,2017_Apr_28_0911,None,KRITL,001,31046,
,,,,,,,,"('SUBTRACT', 'TRIPLE', 'DECREASE', 'DOUBLE', 'x', 'y')",triple,4,"(4, 3, 9, 1)",1,1,8,2,decrease,SUBTRACT,double,BUUUxy,,,,,0,2,2,11,,,,,,space,14.6698357027,1,1,6.2644730024,2017_Apr_28_0911,None,KRITL,001,31046,
,,,,,,,,"('THIRD', 'TIMES', 'HALF', 'x', 'y')",TIMES,3,"(3, 18, 6)",6,6,6,6,half,third,0,UBUxy,,,,,0,3,3,7,,,,,,space,9.65304865455,6,1,5.32104389905,2017_Apr_28_0911,None,KRITL,001,31046,
,,,,,,,,"('THIRD', 'DECREASE', 'TIMES', 'HALF', 'x', 'y')",decrease,4,"(4, 16, 15, 5)",5,5,4,8,TIMES,third,half,UUBUxy,,,,,0,4,4,15,,,,,,space,16.8831835899,5,1,7.16003235057,2017_Apr_28_0911,None,KRITL,001,31046,
,,,,,,,,"('TIMES', 'HALF', 'INCREASE', 'x', 'y')",half,3,"(6, 3, 9)",9,9,3,5,increase,TIMES,0,BUUxy,,,,,0,5,5,5,,,,,,space,5.04415699234,9,1,5.16193370218,2017_Apr_28_0911,None,KRITL,001,31046,
,,,,,,,,"('SUBTRACT', 'DOUBLE', 'TRIPLE', 'DECREASE', 'x', 'y')",double,4,"(2, 6, 12, 8)",8,8,4,3,triple,SUBTRACT,decrease,BUUUxy,,,,,0,6,6,10,,,,,,space,8.6879697605,8,1,13.2732899822,2017_Apr_28_0911,None,KRITL,001,31046,
,,,,,,,,"('DOUBLE', 'DIVIDE', 'TRIPLE', 'INCREASE', 'x', 'y')",DIVIDE,4,"(5, 15, 3, 6)",6,6,5,4,triple,double,increase,UBUUxy,,,,,0,7,7,12,,,,,,space,14.8959429085,6,1,9.73314234661,2017_Apr_28_0911,None,KRITL,001,31046,
,,,,,,,,"('HALF', 'TRIPLE', 'INCREASE', 'SUBTRACT', 'x', 'y')",triple,4,"(1, 2, 6, 3)",3,3,2,3,increase,half,SUBTRACT,UUUBxy,,,,,0,8,8,17,,,,,,space,11.5377381372,3,1,6.51499855984,2017_Apr_28_0911,None,KRITL,001,31046,
,,,,,,,,"('THIRD', 'DIVIDE', 'x', 'y')",DIVIDE,2,"(3, 1)",1,1,2,6,0,third,0,UBxy,,,,,0,9,9,3,,,,,,space,2.05399061623,1,1,1.71904406766,2017_Apr_28_0911,None,KRITL,001,31046,
,,,,,,,,"('INCREASE', 'ADD', 'HALF', 'TRIPLE', 'x', 'y')",ADD,4,"(6, 3, 6, 7)",7,7,3,2,half,increase,triple,UBUUxy,,,,,0,10,10,13,,,,,,space,12.0181368573,7,1,8.13510725158,2017_Apr_28_0911,None,KRITL,001,31046,
,,,,,,,,"('INCREASE', 'SUBTRACT', 'x', 'y')",SUBTRACT,2,"(3, 4)",4,4,3,6,0,increase,0,UBxy,,,,,0,11,11,2,,,,,,space,2.91825238056,4,1,6.59625238087,2017_Apr_28_0911,None,KRITL,001,31046,
,,,,,,,,"('TIMES', 'DOUBLE', 'x', 'y')",double,2,"(4, 8)",8,8,2,2,0,TIMES,0,BUxy,,,,,0,12,12,1,,,,,,space,15.6330503412,8,1,2.39326761244,2017_Apr_28_0911,None,KRITL,001,31046,
,,,,,,,,"('DOUBLE', 'DECREASE', 'ADD', 'x', 'y')",decrease,3,"(4, 3, 6)",6,6,2,2,ADD,double,0,UUBxy,,,,,0,13,13,8,,,,,,space,12.8025831506,6,1,4.85442534066,2017_Apr_28_0911,None,KRITL,001,31046,
,,,,,,,,"('DOUBLE', 'THIRD', 'TIMES', 'x', 'y')",third,3,"(12, 4, 8)",8,8,6,2,TIMES,double,0,UUBxy,,,,,0,14,14,9,,,,,,space,6.8868883031,8,1,4.54764070362,2017_Apr_28_0911,None,KRITL,001,31046,
,,,,,,,,"('DECREASE', 'TRIPLE', 'HALF', 'SUBTRACT', 'x', 'y')",triple,4,"(4, 2, 6, 5)",5,5,2,6,half,decrease,SUBTRACT,UUUBxy,,,,,0,15,15,16,,,,,,space,11.5548873974,7,0,14.6921094784,2017_Apr_28_0911,None,KRITL,001,31046,
,,,,,,,,"('THIRD', 'DIVIDE', 'DECREASE', 'x', 'y')",DIVIDE,3,"(6, 3, 1)",1,1,2,7,decrease,third,0,UBUxy,,,,,0,16,16,6,,,,,,space,15.4942002303,1,1,5.99033155874,2017_Apr_28_0911,None,KRITL,001,31046,
,,,,,,,,"('DECREASE', 'TRIPLE', 'DIVIDE', 'DOUBLE', 'x', 'y')",triple,4,"(6, 2, 6, 5)",5,5,3,3,DIVIDE,decrease,double,UUBUxy,,,,,0,17,17,14,,,,,,space,14.4844740452,8,0,9.33606398175,2017_Apr_28_0911,None,KRITL,001,31046,
,,,,,,,,"('DOUBLE', 'ADD', 'INCREASE', 'THIRD', 'x', 'y')",ADD,4,"(1, 2, 4, 8)",8,8,2,3,increase,double,third,UBUUxy,,,,,0,0,0,12,,,,,,space,8.110897128,8,1,7.82845560065,2017_Apr_28_0911,None,KRITL,001,31046,
,,,,,,,,"('SUBTRACT', 'DECREASE', 'x', 'y')",decrease,2,"(5, 3)",3,3,2,6,0,SUBTRACT,0,BUxy,,,,,0,1,1,1,,,,,,space,4.35341972066,3,1,4.31132681319,2017_Apr_28_0911,None,KRITL,001,31046,
,,,,,,,,"('THIRD', 'DOUBLE', 'ADD', 'DECREASE', 'x', 'y')",double,4,"(5, 12, 24, 8)",8,8,7,6,ADD,third,decrease,UUBUxy,,,,,0,2,2,14,,,,,,space,13.6484942297,8,1,6.57955597318,2017_Apr_28_0911,None,KRITL,001,31046,
,,,,,,,,"('INCREASE', 'SUBTRACT', 'HALF', 'x', 'y')",SUBTRACT,3,"(4, 2, 3)",3,3,2,8,half,increase,0,UBUxy,,,,,0,3,3,7,,,,,,space,12.6748748268,3,1,4.18223263416,2017_Apr_28_0911,None,KRITL,001,31046,
,,,,,,,,"('INCREASE', 'TRIPLE', 'DIVIDE', 'x', 'y')",triple,3,"(2, 6, 7)",7,7,3,6,DIVIDE,increase,0,UUBxy,,,,,0,4,4,8,,,,,,space,4.5650681851,7,1,3.58528417558,2017_Apr_28_0911,None,KRITL,001,31046,
,,,,,,,,"('INCREASE', 'ADD', 'x', 'y')",ADD,2,"(5, 6)",6,6,2,3,0,increase,0,UBxy,,,,,0,5,5,3,,,,,,space,1.25008075405,6,1,1.86356148729,2017_Apr_28_0911,None,KRITL,001,31046,
,,,,,,,,"('THIRD', 'HALF', 'ADD', 'x', 'y')",half,3,"(6, 3, 1)",1,1,3,3,ADD,third,0,UUBxy,,,,,0,6,6,9,,,,,,space,9.23605701746,1,1,2.08380190539,2017_Apr_28_0911,None,KRITL,001,31046,
,,,,,,,,"('DIVIDE', 'DECREASE', 'TRIPLE', 'x', 'y')",decrease,3,"(9, 8, 4)",4,4,2,3,triple,DIVIDE,0,BUUxy,,,,,0,7,7,5,,,,,,space,10.2780176389,4,1,3.01183261536,2017_Apr_28_0911,None,KRITL,001,31046,
,,,,,,,,"('SUBTRACT', 'DECREASE', 'TRIPLE', 'DOUBLE', 'x', 'y')",decrease,4,"(6, 18, 17, 8)",8,8,9,3,triple,SUBTRACT,double,BUUUxy,,,,,0,8,8,11,,,,,,space,8.87215869036,8,1,13.7365030458,2017_Apr_28_0911,None,KRITL,001,31046,
,,,,,,,,"('DIVIDE', 'INCREASE', 'x', 'y')",increase,2,"(4, 2)",2,2,2,3,0,DIVIDE,0,BUxy,,,,,0,9,9,0,,,,,,space,3.36016386701,2,1,2.62805601233,2017_Apr_28_0911,None,KRITL,001,31046,
,,,,,,,,"('HALF', 'TRIPLE', 'INCREASE', 'DIVIDE', 'x', 'y')",triple,4,"(3, 4, 12, 6)",6,6,3,9,increase,half,DIVIDE,UUUBxy,,,,,0,10,10,16,,,,,,space,10.4032951163,6,1,4.72520517488,2017_Apr_28_0911,None,KRITL,001,31046,
,,,,,,,,"('HALF', 'ADD', 'TRIPLE', 'x', 'y')",ADD,3,"(9, 12, 6)",6,6,3,3,triple,half,0,UBUxy,,,,,0,11,11,6,,,,,,space,8.11481496901,6,1,4.03983424325,2017_Apr_28_0911,None,KRITL,001,31046,
,,,,,,,,"('THIRD', 'DOUBLE', 'INCREASE', 'TIMES', 'x', 'y')",double,4,"(8, 9, 18, 6)",6,6,4,2,increase,third,TIMES,UUUBxy,,,,,0,12,12,17,,,,,,space,11.6343340073,6,1,5.8962015314,2017_Apr_28_0911,None,KRITL,001,31046,
,,,,,,,,"('THIRD', 'INCREASE', 'DIVIDE', 'DOUBLE', 'x', 'y')",increase,4,"(18, 2, 3, 1)",1,1,9,9,DIVIDE,third,double,UUBUxy,,,,,0,13,13,15,,,,,,space,14.3234079024,1,1,9.99118441995,2017_Apr_28_0911,None,KRITL,001,31046,
,,,,,,,,"('ADD', 'HALF', 'THIRD', 'x', 'y')",half,3,"(2, 1, 9)",9,9,8,6,third,ADD,0,BUUxy,,,,,0,14,14,4,,,,,,space,9.02887933655,9,1,2.60426234524,2017_Apr_28_0911,None,KRITL,001,31046,
,,,,,,,,"('ADD', 'DOUBLE', 'DECREASE', 'THIRD', 'x', 'y')",double,4,"(2, 1, 2, 8)",8,8,6,6,decrease,ADD,third,BUUUxy,,,,,0,15,15,10,,,,,,space,11.6635024135,8,1,11.0301154074,2017_Apr_28_0911,None,KRITL,001,31046,
,,,,,,,,"('THIRD', 'TIMES', 'DOUBLE', 'DECREASE', 'x', 'y')",TIMES,4,"(1, 2, 6, 2)",2,2,3,2,double,third,decrease,UBUUxy,,,,,0,16,16,13,,,,,,None,,None,0,,2017_Apr_28_0911,None,KRITL,001,31046,
,,,,,,,,"('DECREASE', 'DIVIDE', 'x', 'y')",DIVIDE,2,"(2, 1)",1,1,4,8,0,decrease,0,UBxy,,,,,0,17,17,2,,,,,,space,5.44895310164,1,1,3.89221999678,2017_Apr_28_0911,None,KRITL,001,31046,
,,,,,,,,"('ADD', 'THIRD', 'INCREASE', 'HALF', 'x', 'y')",third,4,"(2, 3, 1, 7)",7,7,6,4,increase,ADD,half,BUUUxy,,,,,0,0,0,10,,,,,,space,11.9474442343,8,0,6.22754135611,2017_Apr_28_0911,None,KRITL,001,31046,
,,,,,,,,"('SUBTRACT', 'HALF', 'TRIPLE', 'x', 'y')",half,3,"(12, 6, 2)",2,2,4,4,triple,SUBTRACT,0,BUUxy,,,,,0,1,1,5,,,,,,space,12.0310239126,2,1,12.5353265388,2017_Apr_28_0911,None,KRITL,001,31046,
,,,,,,,,"('INCREASE', 'DIVIDE', 'THIRD', 'x', 'y')",DIVIDE,3,"(3, 1, 2)",2,2,3,9,third,increase,0,UBUxy,,,,,0,2,2,7,,,,,,space,16.2459238877,2,1,6.0088330782,2017_Apr_28_0911,None,KRITL,001,31046,
,,,,,,,,"('DOUBLE', 'DECREASE', 'TRIPLE', 'DIVIDE', 'x', 'y')",decrease,4,"(1, 3, 2, 4)",4,4,4,4,triple,double,DIVIDE,UUUBxy,,,,,0,3,3,17,,,,,,space,10.0943393058,4,1,9.46242424613,2017_Apr_28_0911,None,KRITL,001,31046,
,,,,,,,,"('DOUBLE', 'DECREASE', 'SUBTRACT', 'x', 'y')",decrease,3,"(5, 4, 8)",8,8,2,7,SUBTRACT,double,0,UUBxy,,,,,0,4,4,8,,,,,,space,6.9338544521,8,1,7.06318730651,2017_Apr_28_0911,None,KRITL,001,31046,
,,,,,,,,"('DIVIDE', 'INCREASE', 'DOUBLE', 'THIRD', 'x', 'y')",increase,4,"(2, 4, 5, 1)",1,1,5,6,double,DIVIDE,third,BUUUxy,,,,,0,5,5,11,,,,,,space,10.1183681483,1,1,7.2992639218,2017_Apr_28_0911,None,KRITL,001,31046,
,,,,,,,,"('HALF', 'TIMES', 'x', 'y')",TIMES,2,"(16, 8)",8,8,4,4,0,half,0,UBxy,,,,,0,6,6,3,,,,,,space,4.87004946033,8,1,2.27574322629,2017_Apr_28_0911,None,KRITL,001,31046,
,,,,,,,,"('DOUBLE', 'TRIPLE', 'SUBTRACT', 'x', 'y')",triple,3,"(1, 3, 6)",6,6,3,4,SUBTRACT,double,0,UUBxy,,,,,0,7,7,9,,,,,,space,4.8688592345,6,1,6.7299590786,2017_Apr_28_0911,None,KRITL,001,31046,
,,,,,,,,"('DECREASE', 'HALF', 'TRIPLE', 'DIVIDE', 'x', 'y')",half,4,"(4, 12, 6, 5)",5,5,2,8,triple,decrease,DIVIDE,UUUBxy,,,,,0,8,8,16,,,,,,space,7.4574278174,5,1,8.26523312298,2017_Apr_28_0911,None,KRITL,001,31046,
,,,,,,,,"('DIVIDE', 'DOUBLE', 'x', 'y')",double,2,"(12, 2)",2,2,6,6,0,DIVIDE,0,BUxy,,,,,0,9,9,1,,,,,,space,4.11488636164,2,1,2.24157734122,2017_Apr_28_0911,None,KRITL,001,31046,
,,,,,,,,"('DOUBLE', 'SUBTRACT', 'x', 'y')",SUBTRACT,2,"(1, 2)",2,2,7,8,0,double,0,UBxy,,,,,0,10,10,2,,,,,,space,2.17849887372,2,1,3.6048516836,2017_Apr_28_0911,None,KRITL,001,31046,
,,,,,,,,"('DECREASE', 'THIRD', 'TIMES', 'HALF', 'x', 'y')",third,4,"(2, 12, 4, 3)",3,3,6,4,TIMES,decrease,half,UUBUxy,,,,,0,11,11,14,,,,,,space,16.3595325327,3,1,6.13149282872,2017_Apr_28_0911,None,KRITL,001,31046,
,,,,,,,,"('ADD', 'DOUBLE', 'x', 'y')",double,2,"(4, 8)",8,8,4,2,0,ADD,0,BUxy,,,,,0,12,12,0,,,,,,space,1.31452687923,8,1,2.32876024395,2017_Apr_28_0911,None,KRITL,001,31046,
,,,,,,,,"('DECREASE', 'ADD', 'DOUBLE', 'THIRD', 'x', 'y')",ADD,4,"(3, 6, 10, 9)",9,9,4,9,double,decrease ,third,UBUUxy,,,,,0,13,13,12,,,,,,space,5.1527065651,9,1,15.9392645378,2017_Apr_28_0911,None,KRITL,001,31046,
,,,,,,,,"('DIVIDE', 'DOUBLE', 'THIRD', 'x', 'y')",double,3,"(2, 4, 1)",1,1,4,6,third,DIVIDE,0,BUUxy,,,,,0,14,14,4,,,,,,space,3.5258418282,1,1,3.87476066872,2017_Apr_28_0911,None,KRITL,001,31046,
,,,,,,,,"('DOUBLE', 'TRIPLE', 'DIVIDE', 'DECREASE', 'x', 'y')",triple,4,"(8, 1, 3, 6)",6,6,8,9,DIVIDE,double,decrease,UUBUxy,,,,,0,15,15,15,,,,,,space,8.34491665801,6,1,3.57151311263,2017_Apr_28_0911,None,KRITL,001,31046,
,,,,,,,,"('HALF', 'SUBTRACT', 'TRIPLE', 'x', 'y')",SUBTRACT,3,"(9, 2, 1)",1,1,7,3,triple,half,0,UBUxy,,,,,0,16,16,6,,,,,,space,11.7811965321,1,1,3.97244002577,2017_Apr_28_0911,None,KRITL,001,31046,
,,,,,,,,"('DECREASE', 'TIMES', 'DOUBLE', 'THIRD', 'x', 'y')",TIMES,4,"(1, 2, 8, 7)",7,7,4,3,double,decrease,third,UBUUxy,,,,,0,17,17,13,,,,,,space,11.7961812685,7,1,4.82208591537,2017_Apr_28_0911,None,KRITL,001,31046,
,,,,,,,,"('DECREASE', 'TRIPLE', 'HALF', 'ADD', 'x', 'y')",triple,4,"(6, 3, 9, 8)",8,8,2,4,half,decrease,ADD,UUUBxy,,,,,0,0,0,16,,,,,,space,9.22700941144,8,1,7.22149328724,2017_Apr_28_0911,None,KRITL,001,31046,
,,,,,,,,"('TIMES', 'THIRD', 'DOUBLE', 'x', 'y')",third,3,"(6, 2, 4)",4,4,2,3,double,TIMES,0,BUUxy,,,,,0,1,1,5,,,,,,space,10.1818375252,6,0,4.28966757329,2017_Apr_28_0911,None,KRITL,001,31046,
,,,,,,,,"('THIRD', 'INCREASE', 'SUBTRACT', 'x', 'y')",increase,3,"(2, 3, 1)",1,1,6,8,SUBTRACT,third,0,UUBxy,,,,,0,2,2,9,,,,,,space,9.83125915797,1,1,3.82484747726,2017_Apr_28_0911,None,KRITL,001,31046,
,,,,,,,,"('DIVIDE', 'TRIPLE', 'HALF', 'x', 'y')",triple,3,"(4, 12, 4)",4,4,3,8,half,DIVIDE,0,BUUxy,,,,,0,3,3,4,,,,,,space,6.75641526817,4,1,6.3706501727,2017_Apr_28_0911,None,KRITL,001,31046,
,,,,,,,,"('DOUBLE', 'TIMES', 'x', 'y')",TIMES,2,"(4, 8)",8,8,2,2,0,double,0,UBxy,,,,,0,4,4,3,,,,,,space,1.12654364528,8,1,3.09517466859,2017_Apr_28_0911,None,KRITL,001,31046,
,,,,,,,,"('INCREASE', 'ADD', 'TRIPLE', 'x', 'y')",ADD,3,"(6, 8, 9)",9,9,2,2,triple,increase,0,UBUxy,,,,,0,5,5,6,,,,,,space,14.69324301,9,1,5.17522846488,2017_Apr_28_0911,None,KRITL,001,31046,
,,,,,,,,"('THIRD', 'TIMES', 'HALF', 'INCREASE', 'x', 'y')",TIMES,4,"(8, 4, 12, 4)",4,4,3,7,half,third,increase,UBUUxy,,,,,0,6,6,13,,,,,,space,12.2932344009,4,1,7.87579796044,2017_Apr_28_0911,None,KRITL,001,31046,
,,,,,,,,"('TIMES', 'INCREASE', 'HALF', 'TRIPLE', 'x', 'y')",increase,4,"(6, 3, 4, 8)",8,8,2,2,half,TIMES,triple,BUUUxy,,,,,0,7,7,11,,,,,,space,9.07867249055,8,1,9.6491546107,2017_Apr_28_0911,None,KRITL,001,31046,
,,,,,,,,"('DIVIDE', 'DOUBLE', 'INCREASE', 'THIRD', 'x', 'y')",double,4,"(2, 3, 6, 2)",2,2,3,6,increase,DIVIDE,third,BUUUxy,,,,,0,8,8,10,,,,,,space,5.2848807727,2,1,11.6057052447,2017_Apr_28_0911,None,KRITL,001,31046,
,,,,,,,,"('THIRD', 'INCREASE', 'ADD', 'DOUBLE', 'x', 'y')",increase,4,"(16, 20, 21, 7)",7,7,4,8,ADD,third,double,UUBUxy,,,,,0,9,9,14,,,,,,space,10.3098580162,7,1,6.98223585379,2017_Apr_28_0911,None,KRITL,001,31046,
,,,,,,,,"('ADD', 'THIRD', 'x', 'y')",third,2,"(1, 7)",7,7,6,3,0,ADD,0,BUxy,,,,,0,10,10,0,,,,,,space,1.74661454069,7,1,2.51909313258,2017_Apr_28_0911,None,KRITL,001,31046,
,,,,,,,,"('SUBTRACT', 'INCREASE', 'x', 'y')",increase,2,"(6, 2)",2,2,4,5,0,SUBTRACT,0,BUxy,,,,,0,11,11,1,,,,,,space,1.81257110811,2,1,2.00100859487,2017_Apr_28_0911,None,KRITL,001,31046,
,,,,,,,,"('TRIPLE', 'DOUBLE', 'SUBTRACT', 'DECREASE', 'x', 'y')",double,4,"(4, 1, 2, 6)",6,6,3,5,SUBTRACT,triple,decrease,UUBUxy,,,,,0,12,12,15,,,,,,space,6.30796891334,6,1,4.19822736504,2017_Apr_28_0911,None,KRITL,001,31046,
,,,,,,,,"('TRIPLE', 'DECREASE', 'HALF', 'SUBTRACT', 'x', 'y')",decrease,4,"(4, 2, 1, 3)",3,3,5,9,half,triple,SUBTRACT,UUUBxy,,,,,0,13,13,17,,,,,,space,13.2227181594,8,0,10.9669036036,2017_Apr_28_0911,None,KRITL,001,31046,
,,,,,,,,"('INCREASE', 'SUBTRACT', 'THIRD', 'x', 'y')",SUBTRACT,3,"(3, 1, 2)",2,2,2,9,third,increase,0,UBUxy,,,,,0,14,14,7,,,,,,space,10.2116687624,2,1,3.93955045776,2017_Apr_28_0911,None,KRITL,001,31046,
,,,,,,,,"('DOUBLE', 'ADD', 'x', 'y')",ADD,2,"(4, 8)",8,8,2,2,0,double,0,UBxy,,,,,0,15,15,2,,,,,,space,0.983022571541,8,1,3.1422283086,2017_Apr_28_0911,None,KRITL,001,31046,
,,,,,,,,"('DECREASE', 'TRIPLE', 'DIVIDE', 'x', 'y')",triple,3,"(2, 6, 5)",5,5,4,8,DIVIDE,decrease,0,UUBxy,,,,,0,16,16,8,,,,,,space,10.419982075,5,1,3.37151528243,2017_Apr_28_0911,None,KRITL,001,31046,
,,,,,,,,"('INCREASE', 'DIVIDE', 'TRIPLE', 'HALF', 'x', 'y')",DIVIDE,4,"(2, 6, 2, 3)",3,3,3,4,triple,increase,half,UBUUxy,,,,,0,17,17,12,,,,,,space,9.87317428412,3,1,6.21617699205,2017_Apr_28_0911,None,KRITL,001,31046,
,,,,,,,,"('HALF', 'ADD', 'x', 'y')",ADD,2,"(12, 6)",6,6,8,4,0,half,0,UBxy,,,,,0,0,0,3,,,,,,space,0.979387501022,6,1,4.88746259338,2017_Apr_28_0911,None,KRITL,001,31046,
,,,,,,,,"('DECREASE', 'ADD', 'THIRD', 'HALF', 'x', 'y')",ADD,4,"(3, 1, 7, 6)",6,6,6,6,third,decrease,half,UBUUxy,,,,,0,1,1,12,,,,,,space,6.27866192162,1,0,9.60212931782,2017_Apr_28_0911,None,KRITL,001,31046,
,,,,,,,,"('DOUBLE', 'SUBTRACT', 'INCREASE', 'x', 'y')",SUBTRACT,3,"(4, 1, 2)",2,2,3,3,increase,double,0,UBUxy,,,,,0,2,2,6,,,,,,space,10.0075063668,2,1,4.11690810067,2017_Apr_28_0911,None,KRITL,001,31046,
,,,,,,,,"('INCREASE', 'HALF', 'THIRD', 'TIMES', 'x', 'y')",half,4,"(12, 4, 2, 3)",3,3,4,3,third,increase,TIMES,UUUBxy,,,,,0,3,3,16,,,,,,space,10.5822692404,3,1,3.4722235736,2017_Apr_28_0911,None,KRITL,001,31046,
,,,,,,,,"('DECREASE', 'SUBTRACT', 'DOUBLE', 'THIRD', 'x', 'y')",SUBTRACT,4,"(3, 6, 4, 3)",3,3,2,9,double,decrease,third,UBUUxy,,,,,0,4,4,13,,,,,,space,11.9424814021,3,1,7.4156995716,2017_Apr_28_0911,None,KRITL,001,31046,
,,,,,,,,"('DIVIDE', 'DECREASE', 'x', 'y')",decrease,2,"(8, 2)",2,2,4,9,0,DIVIDE,0,BUxy,,,,,0,5,5,1,,,,,,space,0.883568549529,2,1,4.19443551055,2017_Apr_28_0911,None,KRITL,001,31046,
,,,,,,,,"('ADD', 'TRIPLE', 'DOUBLE', 'DECREASE', 'x', 'y')",triple,4,"(1, 2, 6, 8)",8,8,2,2,double,ADD,decrease,BUUUxy,,,,,0,6,6,11,,,,,,space,11.8617994213,8,1,3.92389834113,2017_Apr_28_0911,None,KRITL,001,31046,
,,,,,,,,"('THIRD', 'HALF', 'INCREASE', 'SUBTRACT', 'x', 'y')",half,4,"(5, 6, 3, 1)",1,1,2,7,increase,third,SUBTRACT,UUUBxy,,,,,0,7,7,17,,,,,,space,15.8122018967,1,1,5.09535140009,2017_Apr_28_0911,None,KRITL,001,31046,
,,,,,,,,"('DECREASE', 'DOUBLE', 'TIMES', 'THIRD', 'x', 'y')",double,4,"(1, 3, 6, 5)",5,5,3,3,TIMES,decrease,third,UUBUxy,,,,,0,8,8,14,,,,,,space,9.04393371544,5,1,6.96752198902,2017_Apr_28_0911,None,KRITL,001,31046,
,,,,,,,,"('ADD', 'TRIPLE', 'HALF', 'x', 'y')",triple,3,"(2, 6, 8)",8,8,2,4,half,ADD,0,BUUxy,,,,,0,9,9,5,,,,,,space,3.10684070108,8,1,3.15933942283,2017_Apr_28_0911,None,KRITL,001,31046,
,,,,,,,,"('HALF', 'INCREASE', 'TIMES', 'x', 'y')",increase,3,"(9, 10, 5)",5,5,3,3,TIMES,half,0,UUBxy,,,,,0,10,10,9,,,,,,space,5.76487108576,5,1,2.48404778959,2017_Apr_28_0911,None,KRITL,001,31046,
,,,,,,,,"('ADD', 'DECREASE', 'x', 'y')",decrease,2,"(2, 7)",7,7,5,3,0,ADD,0,BUxy,,,,,0,11,11,0,,,,,,space,1.25449589337,7,1,3.07733667991,2017_Apr_28_0911,None,KRITL,001,31046,
,,,,,,,,"('DECREASE', 'TIMES', 'x', 'y')",TIMES,2,"(9, 8)",8,8,3,3,0,decrease,0,UBxy,,,,,0,12,12,2,,,,,,space,1.09185001533,8,1,2.76065577543,2017_Apr_28_0911,None,KRITL,001,31046,
,,,,,,,,"('ADD', 'DECREASE', 'THIRD', 'DOUBLE', 'x', 'y')",decrease,4,"(18, 6, 5, 9)",9,9,4,9,third,ADD,double,BUUUxy,,,,,0,13,13,10,,,,,,space,6.95043992158,9,1,6.93230586383,2017_Apr_28_0911,None,KRITL,001,31046,
,,,,,,,,"('DECREASE', 'TRIPLE', 'SUBTRACT', 'DOUBLE', 'x', 'y')",triple,4,"(6, 3, 9, 8)",8,8,3,3,SUBTRACT,decrease,double,UUBUxy,,,,,0,14,14,15,,,,,,space,17.3150066789,5,0,12.3103115689,2017_Apr_28_0911,None,KRITL,001,31046,
,,,,,,,,"('DOUBLE', 'THIRD', 'ADD', 'x', 'y')",third,3,"(9, 3, 6)",6,6,4,5,ADD,double,0,UUBxy,,,,,0,15,15,8,,,,,,space,4.85529989959,6,1,7.2681514686,2017_Apr_28_0911,None,KRITL,001,31046,
,,,,,,,,"('INCREASE', 'ADD', 'HALF', 'x', 'y')",ADD,3,"(1, 4, 5)",5,5,3,2,half,increase,0,UBUxy,,,,,0,16,16,7,,,,,,space,6.94832999166,5,1,2.99961713981,2017_Apr_28_0911,None,KRITL,001,31046,
,,,,,,,,"('ADD', 'DOUBLE', 'DECREASE', 'x', 'y')",double,3,"(1, 2, 7)",7,7,5,2,decrease,ADD,0,BUUxy,,,,,0,17,17,4,,,,,,space,2.29339713394,7,1,5.29933146457,2017_Apr_28_0911,None,KRITL,001,31046,
