operationc,operationb,operationa,correctresponse,valuey,operationd,condition,valuex,Rule,Operatora,Length,Intermediate,CorrectResponse,Result,Y,X,Operatorc,Operatorb,Operatord,Structure,practice_trials.thisRepN,practice_trials.thisTrialN,practice_trials.thisN,practice_trials.thisIndex,block.thisRepN,block.thisTrialN,block.thisN,block.thisIndex,practice_encoding.keys,practice_encoding.rt,practice_execution.keys,practice_execution.corr,practice_execution.rt,encoding.keys,encoding.rt,execution.keys,execution.corr,execution.rt,date,frameRate,expName,session,participant,
0,ADD,half,7,5,0,2,4,,,,,,,,,,,,,0,0,0,2,,,,,['space'],[2.0999513200949878],7,1,3.28324154369,,,,,,2017_Jun_02_0912,60.0048088877,KRITL,001,31058,
increase,DIVIDE,triple,3,3,0,3,2,,,,,,,,,,,,,0,1,1,4,,,,,['space'],[2.233261159155518],3,1,5.98299807427,,,,,,2017_Jun_02_0912,60.0048088877,KRITL,001,31058,
0,ADD,decrease,7,5,0,2,3,,,,,,,,,,,,,0,2,2,0,,,,,['space'],[1.4999872264452279],7,1,2.16666065902,,,,,,2017_Jun_02_0912,60.0048088877,KRITL,001,31058,
ADD,triple ,half,8,2,0,3,4,,,,,,,,,,,,,0,3,3,3,,,,,['space'],[1.6833008974790573],8,1,3.36654650094,,,,,,2017_Jun_02_0912,60.0048088877,KRITL,001,31058,
0,decrease,TIMES,8,3,0,2,3,,,,,,,,,,,,,0,4,4,1,,,,,['space'],[1.5166699853725731],8,1,2.99991390901,,,,,,2017_Jun_02_0912,60.0048088877,KRITL,001,31058,
increase,DIVIDE,double,9,8,triple,4,8,,,,,,,,,,,,,0,5,5,5,,,,,['space'],[2.766554760048166],9,1,4.49979264662,,,,,,2017_Jun_02_0912,60.0048088877,KRITL,001,31058,
,,,,,,,,"('ADD', 'THIRD', 'x', 'y')",third,2,"(1, 7)",7,7,6,3,0,ADD,0,BUxy,,,,,0,0,0,0,,,,,,space,2.54999420815,7,1,2.24999046349,2017_Jun_02_0912,60.0048088877,KRITL,001,31058,
,,,,,,,,"('DECREASE', 'TRIPLE', 'HALF', 'ADD', 'x', 'y')",triple,4,"(6, 3, 9, 8)",8,8,2,4,half,decrease,ADD,UUUBxy,,,,,0,1,1,16,,,,,,space,1.81668562884,8,1,7.11623792048,2017_Jun_02_0912,60.0048088877,KRITL,001,31058,
,,,,,,,,"('INCREASE', 'ADD', 'TRIPLE', 'x', 'y')",ADD,3,"(6, 8, 9)",9,9,2,2,triple,increase,0,UBUxy,,,,,0,2,2,6,,,,,,space,1.70000185492,9,1,5.81619253033,2017_Jun_02_0912,60.0048088877,KRITL,001,31058,
,,,,,,,,"('DOUBLE', 'TIMES', 'x', 'y')",TIMES,2,"(4, 8)",8,8,2,2,0,double,0,UBxy,,,,,0,3,3,3,,,,,,space,1.65004351805,8,1,1.53320715996,2017_Jun_02_0912,60.0048088877,KRITL,001,31058,
,,,,,,,,"('SUBTRACT', 'INCREASE', 'x', 'y')",increase,2,"(6, 2)",2,2,4,5,0,SUBTRACT,0,BUxy,,,,,0,4,4,1,,,,,,space,2.06664144597,2,1,1.83336663805,2017_Jun_02_0912,60.0048088877,KRITL,001,31058,
,,,,,,,,"('THIRD', 'TIMES', 'HALF', 'INCREASE', 'x', 'y')",TIMES,4,"(8, 4, 12, 4)",4,4,3,7,half,third,increase,UBUUxy,,,,,0,5,5,13,,,,,,space,2.48326562135,4,1,5.11645734753,2017_Jun_02_0912,60.0048088877,KRITL,001,31058,
,,,,,,,,"('DIVIDE', 'TRIPLE', 'HALF', 'x', 'y')",triple,3,"(4, 12, 4)",4,4,3,8,half,DIVIDE,0,BUUxy,,,,,0,6,6,4,,,,,,space,1.31670400198,4,1,4.69980867486,2017_Jun_02_0912,60.0048088877,KRITL,001,31058,
,,,,,,,,"('INCREASE', 'SUBTRACT', 'THIRD', 'x', 'y')",SUBTRACT,3,"(3, 1, 2)",2,2,2,9,third,increase,0,UBUxy,,,,,0,7,7,7,,,,,,space,1.76654111152,2,1,7.11626031832,2017_Jun_02_0912,60.0048088877,KRITL,001,31058,
,,,,,,,,"('INCREASE', 'DIVIDE', 'TRIPLE', 'HALF', 'x', 'y')",DIVIDE,4,"(2, 6, 2, 3)",3,3,3,4,triple,increase,half,UBUUxy,,,,,0,8,8,12,,,,,,space,1.56662937207,3,1,3.71652538073,2017_Jun_02_0912,60.0048088877,KRITL,001,31058,
,,,,,,,,"('THIRD', 'INCREASE', 'ADD', 'DOUBLE', 'x', 'y')",increase,4,"(16, 20, 21, 7)",7,7,4,8,ADD,third,double,UUBUxy,,,,,0,9,9,14,,,,,,space,2.2499719155,7,1,4.89978235774,2017_Jun_02_0912,60.0048088877,KRITL,001,31058,
,,,,,,,,"('TRIPLE', 'DECREASE', 'HALF', 'SUBTRACT', 'x', 'y')",decrease,4,"(4, 2, 1, 3)",3,3,5,9,half,triple,SUBTRACT,UUUBxy,,,,,0,10,10,17,,,,,,space,4.23315022071,3,1,5.84967598645,2017_Jun_02_0912,60.0048088877,KRITL,001,31058,
,,,,,,,,"('TRIPLE', 'DOUBLE', 'SUBTRACT', 'DECREASE', 'x', 'y')",double,4,"(4, 1, 2, 6)",6,6,3,5,SUBTRACT,triple,decrease,UUBUxy,,,,,0,11,11,15,,,,,,space,3.7664385722,6,1,3.84987301589,2017_Jun_02_0912,60.0048088877,KRITL,001,31058,
,,,,,,,,"('DOUBLE', 'ADD', 'x', 'y')",ADD,2,"(4, 8)",8,8,2,2,0,double,0,UBxy,,,,,0,12,12,2,,,,,,space,1.51651670155,8,1,3.26656718366,2017_Jun_02_0912,60.0048088877,KRITL,001,31058,
,,,,,,,,"('THIRD', 'INCREASE', 'SUBTRACT', 'x', 'y')",increase,3,"(2, 3, 1)",1,1,6,8,SUBTRACT,third,0,UUBxy,,,,,0,13,13,9,,,,,,space,1.86668351153,1,1,7.83296662988,2017_Jun_02_0912,60.0048088877,KRITL,001,31058,
,,,,,,,,"('DECREASE', 'TRIPLE', 'DIVIDE', 'x', 'y')",triple,3,"(2, 6, 5)",5,5,4,8,DIVIDE,decrease,0,UUBxy,,,,,0,14,14,8,,,,,,space,1.89996958827,5,1,2.75000918657,2017_Jun_02_0912,60.0048088877,KRITL,001,31058,
,,,,,,,,"('TIMES', 'THIRD', 'DOUBLE', 'x', 'y')",third,3,"(6, 2, 4)",4,4,2,3,double,TIMES,0,BUUxy,,,,,0,15,15,5,,,,,,space,2.33327617263,4,1,4.79961581016,2017_Jun_02_0912,60.0048088877,KRITL,001,31058,
,,,,,,,,"('TIMES', 'INCREASE', 'HALF', 'TRIPLE', 'x', 'y')",increase,4,"(6, 3, 4, 8)",8,8,2,2,half,TIMES,triple,BUUUxy,,,,,0,16,16,11,,,,,,space,2.64993362944,8,1,4.69989441615,2017_Jun_02_0912,60.0048088877,KRITL,001,31058,
,,,,,,,,"('DIVIDE', 'DOUBLE', 'INCREASE', 'THIRD', 'x', 'y')",double,4,"(2, 3, 6, 2)",2,2,3,6,increase,DIVIDE,third,BUUUxy,,,,,0,17,17,10,,,,,,space,2.78325396753,2,1,4.8329029365,2017_Jun_02_0912,60.0048088877,KRITL,001,31058,
,,,,,,,,"('INCREASE', 'ADD', 'x', 'y')",ADD,2,"(5, 6)",6,6,2,3,0,increase,0,UBxy,,,,,0,0,0,3,,,,,,space,2.10004021088,6,1,3.9998211686,2017_Jun_02_0912,60.0048088877,KRITL,001,31058,
,,,,,,,,"('SUBTRACT', 'DECREASE', 'x', 'y')",decrease,2,"(5, 3)",3,3,2,6,0,SUBTRACT,0,BUxy,,,,,0,1,1,1,,,,,,space,0.833436280955,3,1,3.33326672367,2017_Jun_02_0912,60.0048088877,KRITL,001,31058,
,,,,,,,,"('SUBTRACT', 'DECREASE', 'TRIPLE', 'DOUBLE', 'x', 'y')",decrease,4,"(6, 18, 17, 8)",8,8,9,3,triple,SUBTRACT,double,BUUUxy,,,,,0,2,2,11,,,,,,space,3.26654058648,8,1,5.59977301373,2017_Jun_02_0912,60.0048088877,KRITL,001,31058,
,,,,,,,,"('DIVIDE', 'DECREASE', 'TRIPLE', 'x', 'y')",decrease,3,"(9, 8, 4)",4,4,2,3,triple,DIVIDE,0,BUUxy,,,,,0,3,3,5,,,,,,space,1.4000310069,4,1,3.88320878707,2017_Jun_02_0912,60.0048088877,KRITL,001,31058,
,,,,,,,,"('DIVIDE', 'INCREASE', 'x', 'y')",increase,2,"(4, 2)",2,2,2,3,0,DIVIDE,0,BUxy,,,,,0,4,4,0,,,,,,space,1.1834431577,2,1,1.31675579655,2017_Jun_02_0912,60.0048088877,KRITL,001,31058,
,,,,,,,,"('HALF', 'TRIPLE', 'INCREASE', 'DIVIDE', 'x', 'y')",triple,4,"(3, 4, 12, 6)",6,6,3,9,increase,half,DIVIDE,UUUBxy,,,,,0,5,5,16,,,,,,space,2.59975061589,6,1,3.58315919735,2017_Jun_02_0912,60.0048088877,KRITL,001,31058,
,,,,,,,,"('THIRD', 'INCREASE', 'DIVIDE', 'DOUBLE', 'x', 'y')",increase,4,"(18, 2, 3, 1)",1,1,9,9,DIVIDE,third,double,UUBUxy,,,,,0,6,6,15,,,,,,space,3.40028822981,1,1,4.19982949784,2017_Jun_02_0912,60.0048088877,KRITL,001,31058,
,,,,,,,,"('DECREASE', 'DIVIDE', 'x', 'y')",DIVIDE,2,"(2, 1)",1,1,4,8,0,decrease,0,UBxy,,,,,0,7,7,2,,,,,,space,0.783444697503,1,1,1.31684608711,2017_Jun_02_0912,60.0048088877,KRITL,001,31058,
,,,,,,,,"('THIRD', 'TIMES', 'DOUBLE', 'DECREASE', 'x', 'y')",TIMES,4,"(1, 2, 6, 2)",2,2,3,2,double,third,decrease,UBUUxy,,,,,0,8,8,13,,,,,,space,5.24969369452,2,1,4.09986207937,2017_Jun_02_0912,60.0048088877,KRITL,001,31058,
,,,,,,,,"('HALF', 'ADD', 'TRIPLE', 'x', 'y')",ADD,3,"(9, 12, 6)",6,6,3,3,triple,half,0,UBUxy,,,,,0,9,9,6,,,,,,space,1.43334158068,6,1,9.06612804951,2017_Jun_02_0912,60.0048088877,KRITL,001,31058,
,,,,,,,,"('INCREASE', 'SUBTRACT', 'HALF', 'x', 'y')",SUBTRACT,3,"(4, 2, 3)",3,3,2,8,half,increase,0,UBUxy,,,,,0,10,10,7,,,,,,space,1.16667325771,3,1,3.38313966943,2017_Jun_02_0912,60.0048088877,KRITL,001,31058,
,,,,,,,,"('ADD', 'DOUBLE', 'DECREASE', 'THIRD', 'x', 'y')",double,4,"(2, 1, 2, 8)",8,8,6,6,decrease,ADD,third,BUUUxy,,,,,0,11,11,10,,,,,,space,2.58318019495,8,1,4.38316381699,2017_Jun_02_0912,60.0048088877,KRITL,001,31058,
,,,,,,,,"('THIRD', 'HALF', 'ADD', 'x', 'y')",half,3,"(6, 3, 1)",1,1,3,3,ADD,third,0,UUBxy,,,,,0,12,12,9,,,,,,space,1.4333972251,1,1,3.58302971092,2017_Jun_02_0912,60.0048088877,KRITL,001,31058,
,,,,,,,,"('THIRD', 'DOUBLE', 'INCREASE', 'TIMES', 'x', 'y')",double,4,"(8, 9, 18, 6)",6,6,4,2,increase,third,TIMES,UUUBxy,,,,,0,13,13,17,,,,,,space,2.93319932069,6,1,4.18325312762,2017_Jun_02_0912,60.0048088877,KRITL,001,31058,
,,,,,,,,"('THIRD', 'DOUBLE', 'ADD', 'DECREASE', 'x', 'y')",double,4,"(5, 12, 24, 8)",8,8,7,6,ADD,third,decrease,UUBUxy,,,,,0,14,14,14,,,,,,space,2.24997926457,8,1,6.8831793901,2017_Jun_02_0912,60.0048088877,KRITL,001,31058,
,,,,,,,,"('INCREASE', 'TRIPLE', 'DIVIDE', 'x', 'y')",triple,3,"(2, 6, 7)",7,7,3,6,DIVIDE,increase,0,UUBxy,,,,,0,15,15,8,,,,,,space,2.31658711401,7,1,6.13311840896,2017_Jun_02_0912,60.0048088877,KRITL,001,31058,
,,,,,,,,"('DOUBLE', 'ADD', 'INCREASE', 'THIRD', 'x', 'y')",ADD,4,"(1, 2, 4, 8)",8,8,2,3,increase,double,third,UBUUxy,,,,,0,16,16,12,,,,,,space,2.89988594688,8,1,5.74978905963,2017_Jun_02_0912,60.0048088877,KRITL,001,31058,
,,,,,,,,"('ADD', 'HALF', 'THIRD', 'x', 'y')",half,3,"(2, 1, 9)",9,9,8,6,third,ADD,0,BUUxy,,,,,0,17,17,4,,,,,,space,1.18340151198,9,1,3.44992495026,2017_Jun_02_0912,60.0048088877,KRITL,001,31058,
,,,,,,,,"('HALF', 'SUBTRACT', 'DECREASE', 'TRIPLE', 'x', 'y')",SUBTRACT,4,"(15, 14, 10, 5)",5,5,4,5,decrease,half,triple,UBUUxy,,,,,0,0,0,12,,,,,,space,3.63320117537,9,0,15.9988437206,2017_Jun_02_0912,60.0048088877,KRITL,001,31058,
,,,,,,,,"('HALF', 'TIMES', 'DECREASE', 'x', 'y')",TIMES,3,"(8, 16, 8)",8,8,2,9,decrease,half,0,UBUxy,,,,,0,1,1,6,,,,,,space,1.8666604138,8,1,3.16646432946,2017_Jun_02_0912,60.0048088877,KRITL,001,31058,
,,,,,,,,"('TIMES', 'HALF', 'INCREASE', 'THIRD', 'x', 'y')",half,4,"(1, 2, 1, 9)",9,9,9,3,increase,TIMES,third,BUUUxy,,,,,0,2,2,11,,,,,,space,2.4331812975,9,1,6.36633547302,2017_Jun_02_0912,60.0048088877,KRITL,001,31058,
,,,,,,,,"('DIVIDE', 'DOUBLE', 'INCREASE', 'TRIPLE', 'x', 'y')",double,4,"(9, 10, 20, 5)",5,5,4,3,increase,DIVIDE,triple,BUUUxy,,,,,0,3,3,10,,,,,,space,2.79991362896,5,1,4.59982445836,2017_Jun_02_0912,60.0048088877,KRITL,001,31058,
,,,,,,,,"('INCREASE', 'DIVIDE', 'TRIPLE', 'x', 'y')",DIVIDE,3,"(6, 2, 3)",3,3,3,2,triple,increase,0,UBUxy,,,,,0,4,4,7,,,,,,space,1.2500772546,3,1,3.34992498532,2017_Jun_02_0912,60.0048088877,KRITL,001,31058,
,,,,,,,,"('DECREASE', 'THIRD', 'DOUBLE', 'ADD', 'x', 'y')",third,4,"(9, 18, 6, 5)",5,5,4,5,double,decrease,ADD,UUUBxy,,,,,0,5,5,16,,,,,,space,2.3166375088,7,0,4.86646303465,2017_Jun_02_0912,60.0048088877,KRITL,001,31058,
,,,,,,,,"('TRIPLE', 'INCREASE', 'DIVIDE', 'DOUBLE', 'x', 'y')",increase,4,"(16, 2, 3, 9)",9,9,8,8,DIVIDE,triple,double,UUBUxy,,,,,0,6,6,15,,,,,,space,3.06655850471,9,1,3.9665455909,2017_Jun_02_0912,60.0048088877,KRITL,001,31058,
,,,,,,,,"('TRIPLE', 'INCREASE', 'SUBTRACT', 'x', 'y')",increase,3,"(1, 2, 6)",6,6,2,3,SUBTRACT,triple,0,UUBxy,,,,,0,7,7,9,,,,,,space,4.71641969145,6,1,2.89995383983,2017_Jun_02_0912,60.0048088877,KRITL,001,31058,
,,,,,,,,"('INCREASE', 'TIMES', 'TRIPLE', 'HALF', 'x', 'y')",TIMES,4,"(1, 3, 6, 7)",7,7,2,2,triple,increase,half,UBUUxy,,,,,0,8,8,13,,,,,,space,1.66667588241,7,1,4.38295488874,2017_Jun_02_0912,60.0048088877,KRITL,001,31058,
,,,,,,,,"('ADD', 'HALF', 'x', 'y')",half,2,"(2, 7)",7,7,5,4,0,ADD,0,BUxy,,,,,0,9,9,0,,,,,,space,0.750086178537,7,1,1.40009015054,2017_Jun_02_0912,60.0048088877,KRITL,001,31058,
,,,,,,,,"('SUBTRACT', 'INCREASE', 'HALF', 'x', 'y')",increase,3,"(4, 5, 3)",3,3,2,8,half,SUBTRACT,0,BUUxy,,,,,0,10,10,5,,,,,,space,0.850107841194,3,1,4.19986904366,2017_Jun_02_0912,60.0048088877,KRITL,001,31058,
,,,,,,,,"('TRIPLE', 'DOUBLE', 'SUBTRACT', 'INCREASE', 'x', 'y')",double,4,"(5, 1, 2, 6)",6,6,4,4,SUBTRACT,triple,increase,UUBUxy,,,,,0,11,11,14,,,,,,space,1.75001478591,6,1,9.19923595991,2017_Jun_02_0912,60.0048088877,KRITL,001,31058,
,,,,,,,,"('THIRD', 'INCREASE', 'HALF', 'TIMES', 'x', 'y')",increase,4,"(28, 14, 15, 5)",5,5,4,7,half,third,TIMES,UUUBxy,,,,,0,12,12,17,,,,,,space,3.23322091345,5,1,6.96628101845,2017_Jun_02_0912,60.0048088877,KRITL,001,31058,
,,,,,,,,"('INCREASE', 'DIVIDE', 'x', 'y')",DIVIDE,2,"(4, 5)",5,5,2,8,0,increase,0,UBxy,,,,,0,13,13,3,,,,,,space,1.05005842634,5,1,1.48341645533,2017_Jun_02_0912,60.0048088877,KRITL,001,31058,
,,,,,,,,"('SUBTRACT', 'TRIPLE', 'x', 'y')",triple,2,"(12, 9)",9,9,3,4,0,SUBTRACT,0,BUxy,,,,,0,14,14,1,,,,,,space,0.866756653879,9,1,2.46665600454,2017_Jun_02_0912,60.0048088877,KRITL,001,31058,
,,,,,,,,"('DOUBLE', 'DIVIDE', 'x', 'y')",DIVIDE,2,"(1, 2)",2,2,8,8,0,double,0,UBxy,,,,,0,15,15,2,,,,,,space,0.733421967365,2,1,1.63340940373,2017_Jun_02_0912,60.0048088877,KRITL,001,31058,
,,,,,,,,"('TRIPLE', 'HALF', 'ADD', 'x', 'y')",half,3,"(6, 3, 9)",9,9,3,3,ADD,triple,0,UUBxy,,,,,0,16,16,8,,,,,,space,1.81667477987,9,1,3.28324994282,2017_Jun_02_0912,60.0048088877,KRITL,001,31058,
,,,,,,,,"('DIVIDE', 'TRIPLE', 'DECREASE', 'x', 'y')",triple,3,"(6, 18, 9)",9,9,2,7,decrease,DIVIDE,0,BUUxy,,,,,0,17,17,4,,,,,,space,2.41672181501,9,1,5.03297985834,2017_Jun_02_0912,60.0048088877,KRITL,001,31058,
,,,,,,,,"('DIVIDE', 'THIRD', 'x', 'y')",third,2,"(3, 1)",1,1,3,9,0,DIVIDE,0,BUxy,,,,,0,0,0,0,,,,,,space,1.31669875258,1,1,6.04969341448,2017_Jun_02_0912,60.0048088877,KRITL,001,31058,
,,,,,,,,"('DOUBLE', 'DIVIDE', 'TRIPLE', 'INCREASE', 'x', 'y')",DIVIDE,4,"(5, 15, 3, 6)",6,6,5,4,triple,double,increase,UBUUxy,,,,,0,1,1,12,,,,,,space,1.35004257318,6,1,7.39960160153,2017_Jun_02_0912,60.0048088877,KRITL,001,31058,
,,,,,,,,"('DOUBLE', 'DECREASE', 'ADD', 'x', 'y')",decrease,3,"(4, 3, 6)",6,6,2,2,ADD,double,0,UUBxy,,,,,0,2,2,8,,,,,,space,1.11653923918,6,1,4.88312024646,2017_Jun_02_0912,60.0048088877,KRITL,001,31058,
,,,,,,,,"('SUBTRACT', 'DOUBLE', 'TRIPLE', 'DECREASE', 'x', 'y')",double,4,"(2, 6, 12, 8)",8,8,4,3,triple,SUBTRACT,decrease,BUUUxy,,,,,0,3,3,10,,,,,,space,2.38330100244,2,0,13.9657004292,2017_Jun_02_0912,60.0048088877,KRITL,001,31058,
,,,,,,,,"('TIMES', 'DOUBLE', 'x', 'y')",double,2,"(4, 8)",8,8,2,2,0,TIMES,0,BUxy,,,,,0,4,4,1,,,,,,space,1.08338964824,8,1,4.21654515364,2017_Jun_02_0912,60.0048088877,KRITL,001,31058,
,,,,,,,,"('DECREASE', 'TRIPLE', 'DIVIDE', 'DOUBLE', 'x', 'y')",triple,4,"(6, 2, 6, 5)",5,5,3,3,DIVIDE,decrease,double,UUBUxy,,,,,0,5,5,14,,,,,,space,2.01661311626,5,1,12.2323089086,2017_Jun_02_0912,60.0048088877,KRITL,001,31058,
,,,,,,,,"('INCREASE', 'ADD', 'HALF', 'TRIPLE', 'x', 'y')",ADD,4,"(6, 3, 6, 7)",7,7,3,2,half,increase,triple,UBUUxy,,,,,0,6,6,13,,,,,,space,1.85000005248,None,0,,2017_Jun_02_0912,60.0048088877,KRITL,001,31058,
,,,,,,,,"('TIMES', 'HALF', 'INCREASE', 'x', 'y')",half,3,"(6, 3, 9)",9,9,3,5,increase,TIMES,0,BUUxy,,,,,0,7,7,5,,,,,,space,1.6833498925,9,1,3.21660184767,2017_Jun_02_0912,60.0048088877,KRITL,001,31058,
,,,,,,,,"('SUBTRACT', 'TRIPLE', 'DECREASE', 'x', 'y')",triple,3,"(4, 12, 3)",3,3,9,5,decrease,SUBTRACT,0,BUUxy,,,,,0,8,8,4,,,,,,space,1.40003800602,3,1,3.7165558273,2017_Jun_02_0912,60.0048088877,KRITL,001,31058,
,,,,,,,,"('INCREASE', 'SUBTRACT', 'x', 'y')",SUBTRACT,2,"(3, 4)",4,4,3,6,0,increase,0,UBxy,,,,,0,9,9,2,,,,,,space,1.08340259711,4,1,3.76655825949,2017_Jun_02_0912,60.0048088877,KRITL,001,31058,
,,,,,,,,"('THIRD', 'DIVIDE', 'DECREASE', 'x', 'y')",DIVIDE,3,"(6, 3, 1)",1,1,2,7,decrease,third,0,UBUxy,,,,,0,10,10,6,,,,,,space,1.40002750722,1,1,2.21679537743,2017_Jun_02_0912,60.0048088877,KRITL,001,31058,
,,,,,,,,"('THIRD', 'TIMES', 'HALF', 'x', 'y')",TIMES,3,"(3, 18, 6)",6,6,6,6,half,third,0,UBUxy,,,,,0,11,11,7,,,,,,space,1.85008614371,6,1,3.01660786686,2017_Jun_02_0912,60.0048088877,KRITL,001,31058,
,,,,,,,,"('THIRD', 'DIVIDE', 'x', 'y')",DIVIDE,2,"(3, 1)",1,1,2,6,0,third,0,UBxy,,,,,0,12,12,3,,,,,,space,0.800079861889,1,1,2.78330716188,2017_Jun_02_0912,60.0048088877,KRITL,001,31058,
,,,,,,,,"('SUBTRACT', 'TRIPLE', 'DECREASE', 'DOUBLE', 'x', 'y')",triple,4,"(4, 3, 9, 1)",1,1,8,2,decrease,SUBTRACT,double,BUUUxy,,,,,0,13,13,11,,,,,,space,2.36662174319,1,1,5.19977105386,2017_Jun_02_0912,60.0048088877,KRITL,001,31058,
,,,,,,,,"('HALF', 'TRIPLE', 'INCREASE', 'SUBTRACT', 'x', 'y')",triple,4,"(1, 2, 6, 3)",3,3,2,3,increase,half,SUBTRACT,UUUBxy,,,,,0,14,14,17,,,,,,space,2.76659850543,3,1,5.53306822432,2017_Jun_02_0912,60.0048088877,KRITL,001,31058,
,,,,,,,,"('DOUBLE', 'THIRD', 'TIMES', 'x', 'y')",third,3,"(12, 4, 8)",8,8,6,2,TIMES,double,0,UUBxy,,,,,0,15,15,9,,,,,,space,1.86667686212,8,1,3.86653442727,2017_Jun_02_0912,60.0048088877,KRITL,001,31058,
,,,,,,,,"('THIRD', 'DECREASE', 'TIMES', 'HALF', 'x', 'y')",decrease,4,"(4, 16, 15, 5)",5,5,4,8,TIMES,third,half,UUBUxy,,,,,0,16,16,15,,,,,,space,2.58327433513,5,1,6.28300041892,2017_Jun_02_0912,60.0048088877,KRITL,001,31058,
,,,,,,,,"('DECREASE', 'TRIPLE', 'HALF', 'SUBTRACT', 'x', 'y')",triple,4,"(4, 2, 6, 5)",5,5,2,6,half,decrease,SUBTRACT,UUUBxy,,,,,0,17,17,16,,,,,,space,2.39995156508,5,1,10.1993332494,2017_Jun_02_0912,60.0048088877,KRITL,001,31058,
,,,,,,,,"('ADD', 'THIRD', 'INCREASE', 'HALF', 'x', 'y')",third,4,"(2, 3, 1, 7)",7,7,6,4,increase,ADD,half,BUUUxy,,,,,0,0,0,10,,,,,,space,2.23330630432,7,1,4.19986134442,2017_Jun_02_0912,60.0048088877,KRITL,001,31058,
,,,,,,,,"('SUBTRACT', 'HALF', 'TRIPLE', 'x', 'y')",half,3,"(12, 6, 2)",2,2,4,4,triple,SUBTRACT,0,BUUxy,,,,,0,1,1,5,,,,,,space,1.21674183314,2,1,5.0164083878,2017_Jun_02_0912,60.0048088877,KRITL,001,31058,
,,,,,,,,"('DOUBLE', 'SUBTRACT', 'x', 'y')",SUBTRACT,2,"(1, 2)",2,2,7,8,0,double,0,UBxy,,,,,0,2,2,2,,,,,,space,0.850099442294,2,1,2.6499913733,2017_Jun_02_0912,60.0048088877,KRITL,001,31058,
,,,,,,,,"('ADD', 'DOUBLE', 'x', 'y')",double,2,"(4, 8)",8,8,4,2,0,ADD,0,BUxy,,,,,0,3,3,0,,,,,,space,1.03341696295,8,1,1.91648016521,2017_Jun_02_0912,60.0048088877,KRITL,001,31058,
,,,,,,,,"('DECREASE', 'HALF', 'TRIPLE', 'DIVIDE', 'x', 'y')",half,4,"(4, 12, 6, 5)",5,5,2,8,triple,decrease,DIVIDE,UUUBxy,,,,,0,4,4,16,,,,,,space,3.38322331058,5,1,5.86635699566,2017_Jun_02_0912,60.0048088877,KRITL,001,31058,
,,,,,,,,"('INCREASE', 'DIVIDE', 'THIRD', 'x', 'y')",DIVIDE,3,"(3, 1, 2)",2,2,3,9,third,increase,0,UBUxy,,,,,0,5,5,7,,,,,,space,1.18339101318,2,1,3.74986885139,2017_Jun_02_0912,60.0048088877,KRITL,001,31058,
,,,,,,,,"('DECREASE', 'TIMES', 'DOUBLE', 'THIRD', 'x', 'y')",TIMES,4,"(1, 2, 8, 7)",7,7,4,3,double,decrease,third,UBUUxy,,,,,0,6,6,13,,,,,,space,3.1165682862,7,1,7.7661995471,2017_Jun_02_0912,60.0048088877,KRITL,001,31058,
,,,,,,,,"('DIVIDE', 'DOUBLE', 'x', 'y')",double,2,"(12, 2)",2,2,6,6,0,DIVIDE,0,BUxy,,,,,0,7,7,1,,,,,,space,1.35005517188,2,1,1.4167298642,2017_Jun_02_0912,60.0048088877,KRITL,001,31058,
,,,,,,,,"('DECREASE', 'ADD', 'DOUBLE', 'THIRD', 'x', 'y')",ADD,4,"(3, 6, 10, 9)",9,9,4,9,double,decrease ,third,UBUUxy,,,,,0,8,8,12,,,,,,space,2.13330178987,9,1,3.51656324649,2017_Jun_02_0912,60.0048088877,KRITL,001,31058,
,,,,,,,,"('DIVIDE', 'INCREASE', 'DOUBLE', 'THIRD', 'x', 'y')",increase,4,"(2, 4, 5, 1)",1,1,5,6,double,DIVIDE,third,BUUUxy,,,,,0,9,9,11,,,,,,space,3.06659350102,1,1,5.14956669277,2017_Jun_02_0912,60.0048088877,KRITL,001,31058,
,,,,,,,,"('DOUBLE', 'TRIPLE', 'SUBTRACT', 'x', 'y')",triple,3,"(1, 3, 6)",6,6,3,4,SUBTRACT,double,0,UUBxy,,,,,0,10,10,9,,,,,,space,2.51660489221,6,1,6.08302568644,2017_Jun_02_0912,60.0048088877,KRITL,001,31058,
,,,,,,,,"('DOUBLE', 'DECREASE', 'SUBTRACT', 'x', 'y')",decrease,3,"(5, 4, 8)",8,8,2,7,SUBTRACT,double,0,UUBxy,,,,,0,11,11,8,,,,,,space,3.0498984931,8,1,5.53307312378,2017_Jun_02_0912,60.0048088877,KRITL,001,31058,
,,,,,,,,"('DOUBLE', 'TRIPLE', 'DIVIDE', 'DECREASE', 'x', 'y')",triple,4,"(8, 1, 3, 6)",6,6,8,9,DIVIDE,double,decrease,UUBUxy,,,,,0,12,12,15,,,,,,space,1.54999945755,6,1,3.76655685971,2017_Jun_02_0912,60.0048088877,KRITL,001,31058,
,,,,,,,,"('DOUBLE', 'DECREASE', 'TRIPLE', 'DIVIDE', 'x', 'y')",decrease,4,"(1, 3, 2, 4)",4,4,4,4,triple,double,DIVIDE,UUUBxy,,,,,0,13,13,17,,,,,,space,4.41647194116,4,1,4.46649012179,2017_Jun_02_0912,60.0048088877,KRITL,001,31058,
,,,,,,,,"('DIVIDE', 'DOUBLE', 'THIRD', 'x', 'y')",double,3,"(2, 4, 1)",1,1,4,6,third,DIVIDE,0,BUUxy,,,,,0,14,14,4,,,,,,space,1.40003380645,1,1,3.63328026724,2017_Jun_02_0912,60.0048088877,KRITL,001,31058,
,,,,,,,,"('HALF', 'TIMES', 'x', 'y')",TIMES,2,"(16, 8)",8,8,4,4,0,half,0,UBxy,,,,,0,15,15,3,,,,,,space,2.54993086471,8,1,2.26666552341,2017_Jun_02_0912,60.0048088877,KRITL,001,31058,
,,,,,,,,"('DECREASE', 'THIRD', 'TIMES', 'HALF', 'x', 'y')",third,4,"(2, 12, 4, 3)",3,3,6,4,TIMES,decrease,half,UUBUxy,,,,,0,16,16,14,,,,,,space,3.49987173826,3,1,5.9162705373,2017_Jun_02_0912,60.0048088877,KRITL,001,31058,
,,,,,,,,"('HALF', 'SUBTRACT', 'TRIPLE', 'x', 'y')",SUBTRACT,3,"(9, 2, 1)",1,1,7,3,triple,half,0,UBUxy,,,,,0,17,17,6,,,,,,space,0.950023115147,1,1,3.11653119,2017_Jun_02_0912,60.0048088877,KRITL,001,31058,
,,,,,,,,"('THIRD', 'ADD', 'INCREASE', 'x', 'y')",ADD,3,"(8, 15, 5)",5,5,7,7,increase,third,0,UBUxy,,,,,0,0,0,6,,,,,,space,1.38306897692,5,1,5.08314152411,2017_Jun_02_0912,60.0048088877,KRITL,001,31058,
,,,,,,,,"('THIRD', 'SUBTRACT', 'x', 'y')",SUBTRACT,2,"(3, 1)",1,1,2,5,0,third,0,UBxy,,,,,0,1,1,3,,,,,,space,1.4997866971,1,1,3.69996195892,2017_Jun_02_0912,60.0048088877,KRITL,001,31058,
,,,,,,,,"('TRIPLE', 'DECREASE', 'HALF', 'TIMES', 'x', 'y')",decrease,4,"(6, 3, 2, 6)",6,6,2,3,half,triple,TIMES,UUUBxy,,,,,0,2,2,17,,,,,,space,2.2998406617,6,1,6.31626969716,2017_Jun_02_0912,60.0048088877,KRITL,001,31058,
,,,,,,,,"('TIMES', 'DECREASE', 'x', 'y')",decrease,2,"(2, 4)",4,4,2,3,0,TIMES,0,BUxy,,,,,0,3,3,0,,,,,,space,1.0167492521,4,1,1.74999413802,2017_Jun_02_0912,60.0048088877,KRITL,001,31058,
,,,,,,,,"('TRIPLE', 'HALF', 'ADD', 'DECREASE', 'x', 'y')",half,4,"(1, 4, 2, 6)",6,6,3,2,ADD,triple,decrease,UUBUxy,,,,,0,4,4,15,,,,,,space,2.18312714063,6,1,5.21649790858,2017_Jun_02_0912,60.0048088877,KRITL,001,31058,
,,,,,,,,"('INCREASE', 'DIVIDE', 'TRIPLE', 'DOUBLE', 'x', 'y')",DIVIDE,4,"(6, 18, 3, 4)",4,4,6,3,triple,increase,double,UBUUxy,,,,,0,5,5,12,,,,,,space,2.73324733553,4,1,6.94959091023,2017_Jun_02_0912,60.0048088877,KRITL,001,31058,
,,,,,,,,"('TIMES', 'INCREASE', 'THIRD', 'DOUBLE', 'x', 'y')",increase,4,"(6, 2, 3, 9)",9,9,3,3,third,TIMES,double,BUUUxy,,,,,0,6,6,11,,,,,,space,3.71651103208,9,1,5.06643041782,2017_Jun_02_0912,60.0048088877,KRITL,001,31058,
,,,,,,,,"('THIRD', 'TIMES', 'DECREASE', 'x', 'y')",TIMES,3,"(3, 15, 5)",5,5,5,4,decrease,third,0,UBUxy,,,,,0,7,7,7,,,,,,space,1.21672678459,5,1,2.53331949818,2017_Jun_02_0912,60.0048088877,KRITL,001,31058,
,,,,,,,,"('TRIPLE', 'SUBTRACT', 'DOUBLE', 'DECREASE', 'x', 'y')",SUBTRACT,4,"(2, 4, 1, 3)",3,3,3,3,double,triple,decrease,UBUUxy,,,,,0,8,8,13,,,,,,space,2.64994167839,3,1,12.632465902,2017_Jun_02_0912,60.0048088877,KRITL,001,31058,
,,,,,,,,"('TRIPLE', 'HALF', 'DIVIDE', 'x', 'y')",half,3,"(2, 1, 3)",3,3,2,4,DIVIDE,triple,0,UUBxy,,,,,0,9,9,9,,,,,,space,1.26672011777,3,1,2.63341220352,2017_Jun_02_0912,60.0048088877,KRITL,001,31058,
,,,,,,,,"('TIMES', 'THIRD', 'HALF', 'x', 'y')",third,3,"(3, 1, 5)",5,5,5,6,half,TIMES,0,BUUxy,,,,,0,10,10,5,,,,,,space,1.66667518253,5,1,3.96659458592,2017_Jun_02_0912,60.0048088877,KRITL,001,31058,
,,,,,,,,"('TIMES', 'INCREASE', 'x', 'y')",increase,2,"(3, 6)",6,6,2,2,0,TIMES,0,BUxy,,,,,0,11,11,1,,,,,,space,0.88332007546,6,1,2.40001280862,2017_Jun_02_0912,60.0048088877,KRITL,001,31058,
,,,,,,,,"('TIMES', 'DECREASE', 'HALF', 'x', 'y')",decrease,3,"(4, 3, 9)",9,9,3,8,half,TIMES,0,BUUxy,,,,,0,12,12,4,,,,,,space,0.966755568981,9,1,4.29979061685,2017_Jun_02_0912,60.0048088877,KRITL,001,31058,
,,,,,,,,"('SUBTRACT', 'HALF', 'INCREASE', 'TRIPLE', 'x', 'y')",half,4,"(15, 16, 8, 3)",3,3,5,5,increase,SUBTRACT,triple,BUUUxy,,,,,0,13,13,10,,,,,,space,3.03324968042,3,1,4.21646466176,2017_Jun_02_0912,60.0048088877,KRITL,001,31058,
,,,,,,,,"('THIRD', 'ADD', 'x', 'y')",ADD,2,"(9, 3)",3,3,5,4,0,third,0,UBxy,,,,,0,14,14,2,,,,,,space,1.05009447271,3,1,3.21658224985,2017_Jun_02_0912,60.0048088877,KRITL,001,31058,
,,,,,,,,"('THIRD', 'INCREASE', 'HALF', 'DIVIDE', 'x', 'y')",increase,4,"(4, 2, 3, 1)",1,1,2,8,half,third,DIVIDE,UUUBxy,,,,,0,15,15,16,,,,,,space,1.59979891102,1,1,4.96644410142,2017_Jun_02_0912,60.0048088877,KRITL,001,31058,
,,,,,,,,"('THIRD', 'DOUBLE', 'ADD', 'INCREASE', 'x', 'y')",double,4,"(10, 12, 24, 8)",8,8,2,9,ADD,third,increase,UUBUxy,,,,,0,16,16,14,,,,,,space,1.46669310052,8,1,4.24983437965,2017_Jun_02_0912,60.0048088877,KRITL,001,31058,
,,,,,,,,"('THIRD', 'DECREASE', 'TIMES', 'x', 'y')",decrease,3,"(25, 24, 8)",8,8,5,5,TIMES,third,0,UUBxy,,,,,0,17,17,8,,,,,,space,2.11665087752,8,1,2.98328224453,2017_Jun_02_0912,60.0048088877,KRITL,001,31058,
,,,,,,,,"('DECREASE', 'SUBTRACT', 'DOUBLE', 'THIRD', 'x', 'y')",SUBTRACT,4,"(3, 6, 4, 3)",3,3,2,9,double,decrease,third,UBUUxy,,,,,0,0,0,13,,,,,,space,3.44985985709,3,1,6.81629436975,2017_Jun_02_0912,60.0048088877,KRITL,001,31058,
,,,,,,,,"('THIRD', 'HALF', 'INCREASE', 'SUBTRACT', 'x', 'y')",half,4,"(5, 6, 3, 1)",1,1,2,7,increase,third,SUBTRACT,UUUBxy,,,,,0,1,1,17,,,,,,space,3.58318439475,1,1,8.19951313082,2017_Jun_02_0912,60.0048088877,KRITL,001,31058,
,,,,,,,,"('DECREASE', 'ADD', 'THIRD', 'HALF', 'x', 'y')",ADD,4,"(3, 1, 7, 6)",6,6,6,6,third,decrease,half,UBUUxy,,,,,0,2,2,12,,,,,,space,5.3496516638,6,1,6.64971035253,2017_Jun_02_0912,60.0048088877,KRITL,001,31058,
,,,,,,,,"('INCREASE', 'ADD', 'HALF', 'x', 'y')",ADD,3,"(1, 4, 5)",5,5,3,2,half,increase,0,UBUxy,,,,,0,3,3,7,,,,,,space,1.01686089067,5,1,2.71663771872,2017_Jun_02_0912,60.0048088877,KRITL,001,31058,
,,,,,,,,"('DOUBLE', 'THIRD', 'ADD', 'x', 'y')",third,3,"(9, 3, 6)",6,6,4,5,ADD,double,0,UUBxy,,,,,0,4,4,8,,,,,,space,2.04996008659,6,1,5.16646012967,2017_Jun_02_0912,60.0048088877,KRITL,001,31058,
,,,,,,,,"('ADD', 'TRIPLE', 'DOUBLE', 'DECREASE', 'x', 'y')",triple,4,"(1, 2, 6, 8)",8,8,2,2,double,ADD,decrease,BUUUxy,,,,,0,5,5,11,,,,,,space,4.21645136317,8,1,3.01662326534,2017_Jun_02_0912,60.0048088877,KRITL,001,31058,
,,,,,,,,"('DECREASE', 'TRIPLE', 'SUBTRACT', 'DOUBLE', 'x', 'y')",triple,4,"(6, 3, 9, 8)",8,8,3,3,SUBTRACT,decrease,double,UUBUxy,,,,,0,6,6,15,,,,,,space,3.16655706987,7,0,17.4487193262,2017_Jun_02_0912,60.0048088877,KRITL,001,31058,
,,,,,,,,"('ADD', 'DECREASE', 'THIRD', 'DOUBLE', 'x', 'y')",decrease,4,"(18, 6, 5, 9)",9,9,4,9,third,ADD,double,BUUUxy,,,,,0,7,7,10,,,,,,space,2.73324768571,9,1,4.11652279086,2017_Jun_02_0912,60.0048088877,KRITL,001,31058,
,,,,,,,,"('DECREASE', 'DOUBLE', 'TIMES', 'THIRD', 'x', 'y')",double,4,"(1, 3, 6, 5)",5,5,3,3,TIMES,decrease,third,UUBUxy,,,,,0,8,8,14,,,,,,space,5.63301359513,7,0,4.94977569091,2017_Jun_02_0912,60.0048088877,KRITL,001,31058,
,,,,,,,,"('ADD', 'DOUBLE', 'DECREASE', 'x', 'y')",double,3,"(1, 2, 7)",7,7,5,2,decrease,ADD,0,BUUxy,,,,,0,9,9,4,,,,,,space,2.41666512098,7,1,5.41641769675,2017_Jun_02_0912,60.0048088877,KRITL,001,31058,
,,,,,,,,"('INCREASE', 'HALF', 'THIRD', 'TIMES', 'x', 'y')",half,4,"(12, 4, 2, 3)",3,3,4,3,third,increase,TIMES,UUUBxy,,,,,0,10,10,16,,,,,,space,3.43319179653,3,1,5.89970256621,2017_Jun_02_0912,60.0048088877,KRITL,001,31058,
,,,,,,,,"('ADD', 'DECREASE', 'x', 'y')",decrease,2,"(2, 7)",7,7,5,3,0,ADD,0,BUxy,,,,,0,11,11,0,,,,,,space,1.51670603175,7,1,3.68322390574,2017_Jun_02_0912,60.0048088877,KRITL,001,31058,
,,,,,,,,"('HALF', 'INCREASE', 'TIMES', 'x', 'y')",increase,3,"(9, 10, 5)",5,5,3,3,TIMES,half,0,UUBxy,,,,,0,12,12,9,,,,,,space,1.36670188466,5,1,3.49990568473,2017_Jun_02_0912,60.0048088877,KRITL,001,31058,
,,,,,,,,"('DOUBLE', 'SUBTRACT', 'INCREASE', 'x', 'y')",SUBTRACT,3,"(4, 1, 2)",2,2,3,3,increase,double,0,UBUxy,,,,,0,13,13,6,,,,,,space,1.1333784319,2,1,1.95002241526,2017_Jun_02_0912,60.0048088877,KRITL,001,31058,
,,,,,,,,"('DIVIDE', 'DECREASE', 'x', 'y')",decrease,2,"(8, 2)",2,2,4,9,0,DIVIDE,0,BUxy,,,,,0,14,14,1,,,,,,space,0.833427181933,2,1,1.83338168659,2017_Jun_02_0912,60.0048088877,KRITL,001,31058,
,,,,,,,,"('ADD', 'TRIPLE', 'HALF', 'x', 'y')",triple,3,"(2, 6, 8)",8,8,2,4,half,ADD,0,BUUxy,,,,,0,15,15,5,,,,,,space,1.33337241272,8,1,2.53332929709,2017_Jun_02_0912,60.0048088877,KRITL,001,31058,
,,,,,,,,"('HALF', 'ADD', 'x', 'y')",ADD,2,"(12, 6)",6,6,8,4,0,half,0,UBxy,,,,,0,16,16,3,,,,,,space,0.600090780528,6,1,1.51674067811,2017_Jun_02_0912,60.0048088877,KRITL,001,31058,
,,,,,,,,"('DECREASE', 'TIMES', 'x', 'y')",TIMES,2,"(9, 8)",8,8,3,3,0,decrease,0,UBxy,,,,,0,17,17,2,,,,,,space,0.700097744819,8,1,1.28341162601,2017_Jun_02_0912,60.0048088877,KRITL,001,31058,
,,,,,,,,"('DIVIDE', 'DECREASE', 'THIRD', 'DOUBLE', 'x', 'y')",decrease,4,"(12, 4, 3, 1)",1,1,3,6,third,DIVIDE,double,BUUUxy,,,,,0,0,0,10,,,,,,space,2.3166217606,1,1,6.38303783,2017_Jun_02_0912,60.0048088877,KRITL,001,31058,
,,,,,,,,"('INCREASE', 'TRIPLE', 'HALF', 'ADD', 'x', 'y')",triple,4,"(4, 2, 6, 7)",7,7,2,2,half,increase,ADD,UUUBxy,,,,,0,1,1,17,,,,,,space,1.41670011729,7,1,8.63282811455,2017_Jun_02_0912,60.0048088877,KRITL,001,31058,
,,,,,,,,"('INCREASE', 'HALF', 'TIMES', 'TRIPLE', 'x', 'y')",half,4,"(6, 12, 6, 7)",7,7,2,2,TIMES,increase,triple,UUBUxy,,,,,0,2,2,14,,,,,,space,1.25004295795,7,1,7.66621078085,2017_Jun_02_0912,60.0048088877,KRITL,001,31058,
,,,,,,,,"('DOUBLE', 'TIMES', 'THIRD', 'x', 'y')",TIMES,3,"(1, 4, 8)",8,8,4,3,third,double,0,UBUxy,,,,,0,3,3,6,,,,,,space,1.73332747724,8,1,3.58322569029,2017_Jun_02_0912,60.0048088877,KRITL,001,31058,
,,,,,,,,"('TRIPLE', 'SUBTRACT', 'INCREASE', 'HALF', 'x', 'y')",SUBTRACT,4,"(3, 4, 1, 3)",3,3,3,6,increase,triple,half,UBUUxy,,,,,0,4,4,13,,,,,,space,3.96649099677,3,1,5.16625120165,2017_Jun_02_0912,60.0048088877,KRITL,001,31058,
,,,,,,,,"('TIMES', 'DECREASE', 'THIRD', 'DOUBLE', 'x', 'y')",decrease,4,"(6, 2, 1, 2)",2,2,2,3,third,TIMES,double,BUUUxy,,,,,0,5,5,11,,,,,,space,1.83333934098,2,1,5.44971217238,2017_Jun_02_0912,60.0048088877,KRITL,001,31058,
,,,,,,,,"('INCREASE', 'TIMES', 'x', 'y')",TIMES,2,"(8, 9)",9,9,4,2,0,increase,0,UBxy,,,,,0,6,6,2,,,,,,space,0.916707991622,9,1,4.58315989724,2017_Jun_02_0912,60.0048088877,KRITL,001,31058,
,,,,,,,,"('TRIPLE', 'HALF', 'TIMES', 'x', 'y')",half,3,"(6, 3, 9)",9,9,3,2,TIMES,triple,0,UUBxy,,,,,0,7,7,9,,,,,,space,0.866764353123,9,1,2.83329384564,2017_Jun_02_0912,60.0048088877,KRITL,001,31058,
,,,,,,,,"('INCREASE', 'DIVIDE', 'HALF', 'x', 'y')",DIVIDE,3,"(2, 1, 2)",2,2,2,4,half,increase,0,UBUxy,,,,,0,8,8,7,,,,,,space,1.76668634638,2,1,4.1831988832,2017_Jun_02_0912,60.0048088877,KRITL,001,31058,
,,,,,,,,"('THIRD', 'INCREASE', 'SUBTRACT', 'HALF', 'x', 'y')",increase,4,"(4, 2, 3, 1)",1,1,2,8,SUBTRACT,third,half,UUBUxy,,,,,0,9,9,15,,,,,,space,2.21662879479,1,1,4.98312301119,2017_Jun_02_0912,60.0048088877,KRITL,001,31058,
,,,,,,,,"('SUBTRACT', 'DOUBLE', 'DECREASE', 'x', 'y')",double,3,"(8, 16, 7)",7,7,9,9,decrease,SUBTRACT,0,BUUxy,,,,,0,10,10,5,,,,,,space,2.14998559887,7,1,3.68322810507,2017_Jun_02_0912,60.0048088877,KRITL,001,31058,
,,,,,,,,"('ADD', 'DECREASE', 'HALF', 'x', 'y')",decrease,3,"(3, 2, 6)",6,6,4,6,half,ADD,0,BUUxy,,,,,0,11,11,4,,,,,,space,1.31671240088,6,1,4.98314890848,2017_Jun_02_0912,60.0048088877,KRITL,001,31058,
,,,,,,,,"('TIMES', 'THIRD', 'x', 'y')",third,2,"(1, 4)",4,4,4,3,0,TIMES,0,BUxy,,,,,0,12,12,1,,,,,,space,1.43337132758,4,1,1.56675500912,2017_Jun_02_0912,60.0048088877,KRITL,001,31058,
,,,,,,,,"('SUBTRACT', 'THIRD', 'x', 'y')",third,2,"(3, 1)",1,1,2,9,0,SUBTRACT,0,BUxy,,,,,0,13,13,0,,,,,,space,1.05006542569,1,1,3.24993096967,2017_Jun_02_0912,60.0048088877,KRITL,001,31058,
,,,,,,,,"('DECREASE', 'HALF', 'TRIPLE', 'ADD', 'x', 'y')",half,4,"(4, 12, 6, 5)",5,5,2,2,triple,decrease,ADD,UUUBxy,,,,,0,14,14,16,,,,,,space,2.83326024935,5,1,6.99960279139,2017_Jun_02_0912,60.0048088877,KRITL,001,31058,
,,,,,,,,"('DECREASE', 'DIVIDE', 'TRIPLE', 'DOUBLE', 'x', 'y')",DIVIDE,4,"(6, 18, 2, 1)",1,1,9,3,triple,decrease,double,UBUUxy,,,,,0,15,15,12,,,,,,space,1.71667866479,1,1,11.4992162569,2017_Jun_02_0912,60.0048088877,KRITL,001,31058,
,,,,,,,,"('DECREASE', 'HALF', 'DIVIDE', 'x', 'y')",half,3,"(4, 2, 1)",1,1,2,8,DIVIDE,decrease,0,UUBxy,,,,,0,16,16,8,,,,,,space,0.800077412045,1,1,3.08327626018,2017_Jun_02_0912,60.0048088877,KRITL,001,31058,
,,,,,,,,"('TRIPLE', 'SUBTRACT', 'x', 'y')",SUBTRACT,2,"(2, 6)",6,6,6,8,0,triple,0,UBxy,,,,,0,17,17,3,,,,,,space,0.91679233266,6,1,1.58338772343,2017_Jun_02_0912,60.0048088877,KRITL,001,31058,
