operationc,operationb,operationa,correctresponse,valuey,operationd,condition,valuex,Rule,Operatora,Length,Intermediate,CorrectResponse,Result,Y,X,Operatorc,Operatorb,Operatord,Structure,practice_trials.thisRepN,practice_trials.thisTrialN,practice_trials.thisN,practice_trials.thisIndex,block.thisRepN,block.thisTrialN,block.thisN,block.thisIndex,practice_encoding.keys,practice_encoding.rt,practice_execution.keys,practice_execution.corr,practice_execution.rt,encoding.keys,encoding.rt,execution.keys,execution.corr,execution.rt,date,frameRate,expName,session,participant,
ADD,triple ,half,8,2,0,3,4,,,,,,,,,,,,,0,0,0,3,,,,,['space'],[4.797531786258332],8,1,14.6397988977,,,,,,2017_May_19_0918,None,KRITL,001,31056,
0,ADD,decrease,7,5,0,2,3,,,,,,,,,,,,,0,1,1,0,,,,,['space'],[3.3287422951543704],7,1,1.83091643569,,,,,,2017_May_19_0918,None,KRITL,001,31056,
increase,DIVIDE,double,9,8,triple,4,8,,,,,,,,,,,,,0,2,2,5,,,,,['space'],[8.0780818288913],9,1,7.48748727445,,,,,,2017_May_19_0918,None,KRITL,001,31056,
increase,DIVIDE,triple,3,3,0,3,2,,,,,,,,,,,,,0,3,3,4,,,,,['space'],[4.060649159015156],3,1,3.09322959511,,,,,,2017_May_19_0918,None,KRITL,001,31056,
0,decrease,TIMES,8,3,0,2,3,,,,,,,,,,,,,0,4,4,1,,,,,['space'],[1.9954056955175474],8,1,1.42889449373,,,,,,2017_May_19_0918,None,KRITL,001,31056,
0,ADD,half,7,5,0,2,4,,,,,,,,,,,,,0,5,5,2,,,,,['space'],[1.9356657384196296],7,1,3.69857085915,,,,,,2017_May_19_0918,None,KRITL,001,31056,
,,,,,,,,"('DECREASE', 'THIRD', 'TIMES', 'HALF', 'x', 'y')",third,4,"(2, 12, 4, 3)",3,3,6,4,TIMES,decrease,half,UUBUxy,,,,,0,0,0,14,,,,,,space,6.38620049821,3,1,15.6797050937,2017_May_19_0918,None,KRITL,001,31056,
,,,,,,,,"('ADD', 'DOUBLE', 'x', 'y')",double,2,"(4, 8)",8,8,4,2,0,ADD,0,BUxy,,,,,0,1,1,0,,,,,,space,6.54977040726,8,1,2.06847466505,2017_May_19_0918,None,KRITL,001,31056,
,,,,,,,,"('DOUBLE', 'DECREASE', 'SUBTRACT', 'x', 'y')",decrease,3,"(5, 4, 8)",8,8,2,7,SUBTRACT,double,0,UUBxy,,,,,0,2,2,8,,,,,,space,6.09035465529,8,1,10.2412527809,2017_May_19_0918,None,KRITL,001,31056,
,,,,,,,,"('ADD', 'THIRD', 'INCREASE', 'HALF', 'x', 'y')",third,4,"(2, 3, 1, 7)",7,7,6,4,increase,ADD,half,BUUUxy,,,,,0,3,3,10,,,,,,space,7.56346688012,7,1,15.4257378342,2017_May_19_0918,None,KRITL,001,31056,
,,,,,,,,"('DIVIDE', 'INCREASE', 'DOUBLE', 'THIRD', 'x', 'y')",increase,4,"(2, 4, 5, 1)",1,1,5,6,double,DIVIDE,third,BUUUxy,,,,,0,4,4,11,,,,,,space,10.5974853112,None,0,,2017_May_19_0918,None,KRITL,001,31056,
,,,,,,,,"('INCREASE', 'DIVIDE', 'THIRD', 'x', 'y')",DIVIDE,3,"(3, 1, 2)",2,2,3,9,third,increase,0,UBUxy,,,,,0,5,5,7,,,,,,space,8.90373028268,2,1,4.45574464789,2017_May_19_0918,None,KRITL,001,31056,
,,,,,,,,"('DECREASE', 'ADD', 'DOUBLE', 'THIRD', 'x', 'y')",ADD,4,"(3, 6, 10, 9)",9,9,4,9,double,decrease ,third,UBUUxy,,,,,0,6,6,12,,,,,,space,16.0503861659,9,1,6.72447576525,2017_May_19_0918,None,KRITL,001,31056,
,,,,,,,,"('DECREASE', 'HALF', 'TRIPLE', 'DIVIDE', 'x', 'y')",half,4,"(4, 12, 6, 5)",5,5,2,8,triple,decrease,DIVIDE,UUUBxy,,,,,0,7,7,16,,,,,,space,7.66805764998,5,1,4.32485981379,2017_May_19_0918,None,KRITL,001,31056,
,,,,,,,,"('DOUBLE', 'SUBTRACT', 'x', 'y')",SUBTRACT,2,"(1, 2)",2,2,7,8,0,double,0,UBxy,,,,,0,8,8,2,,,,,,space,2.85542499239,2,1,2.37469373923,2017_May_19_0918,None,KRITL,001,31056,
,,,,,,,,"('DIVIDE', 'DOUBLE', 'THIRD', 'x', 'y')",double,3,"(2, 4, 1)",1,1,4,6,third,DIVIDE,0,BUUxy,,,,,0,9,9,4,,,,,,space,2.33841035247,1,1,2.80725268775,2017_May_19_0918,None,KRITL,001,31056,
,,,,,,,,"('DIVIDE', 'DOUBLE', 'x', 'y')",double,2,"(12, 2)",2,2,6,6,0,DIVIDE,0,BUxy,,,,,0,10,10,1,,,,,,space,1.76296951377,2,1,1.57495929068,2017_May_19_0918,None,KRITL,001,31056,
,,,,,,,,"('DOUBLE', 'DECREASE', 'TRIPLE', 'DIVIDE', 'x', 'y')",decrease,4,"(1, 3, 2, 4)",4,4,4,4,triple,double,DIVIDE,UUUBxy,,,,,0,11,11,17,,,,,,space,4.08659431082,2,0,14.9328845885,2017_May_19_0918,None,KRITL,001,31056,
,,,,,,,,"('DOUBLE', 'TRIPLE', 'SUBTRACT', 'x', 'y')",triple,3,"(1, 3, 6)",6,6,3,4,SUBTRACT,double,0,UUBxy,,,,,0,12,12,9,,,,,,space,6.21287539136,6,1,1.65672062268,2017_May_19_0918,None,KRITL,001,31056,
,,,,,,,,"('DECREASE', 'TIMES', 'DOUBLE', 'THIRD', 'x', 'y')",TIMES,4,"(1, 2, 8, 7)",7,7,4,3,double,decrease,third,UBUUxy,,,,,0,13,13,13,,,,,,space,7.10776702734,7,1,4.27532755595,2017_May_19_0918,None,KRITL,001,31056,
,,,,,,,,"('DOUBLE', 'TRIPLE', 'DIVIDE', 'DECREASE', 'x', 'y')",triple,4,"(8, 1, 3, 6)",6,6,8,9,DIVIDE,double,decrease,UUBUxy,,,,,0,14,14,15,,,,,,space,13.0750987506,6,1,3.89875451929,2017_May_19_0918,None,KRITL,001,31056,
,,,,,,,,"('HALF', 'SUBTRACT', 'TRIPLE', 'x', 'y')",SUBTRACT,3,"(9, 2, 1)",1,1,7,3,triple,half,0,UBUxy,,,,,0,15,15,6,,,,,,space,5.64969898004,1,1,2.9670783506,2017_May_19_0918,None,KRITL,001,31056,
,,,,,,,,"('SUBTRACT', 'HALF', 'TRIPLE', 'x', 'y')",half,3,"(12, 6, 2)",2,2,4,4,triple,SUBTRACT,0,BUUxy,,,,,0,16,16,5,,,,,,space,8.08572290477,2,1,4.26175251999,2017_May_19_0918,None,KRITL,001,31056,
,,,,,,,,"('HALF', 'TIMES', 'x', 'y')",TIMES,2,"(16, 8)",8,8,4,4,0,half,0,UBxy,,,,,0,17,17,3,,,,,,space,2.73811169469,8,1,1.90857131057,2017_May_19_0918,None,KRITL,001,31056,
,,,,,,,,"('DECREASE', 'TRIPLE', 'SUBTRACT', 'DOUBLE', 'x', 'y')",triple,4,"(6, 3, 9, 8)",8,8,3,3,SUBTRACT,decrease,double,UUBUxy,,,,,0,0,0,15,,,,,,space,4.91712613788,8,1,5.19066153711,2017_May_19_0918,None,KRITL,001,31056,
,,,,,,,,"('ADD', 'DOUBLE', 'DECREASE', 'x', 'y')",double,3,"(1, 2, 7)",7,7,5,2,decrease,ADD,0,BUUxy,,,,,0,1,1,4,,,,,,space,6.69319928845,7,1,3.00090990192,2017_May_19_0918,None,KRITL,001,31056,
,,,,,,,,"('DOUBLE', 'SUBTRACT', 'INCREASE', 'x', 'y')",SUBTRACT,3,"(4, 1, 2)",2,2,3,3,increase,double,0,UBUxy,,,,,0,2,2,6,,,,,,space,4.25680230383,2,1,2.9978890277,2017_May_19_0918,None,KRITL,001,31056,
,,,,,,,,"('DECREASE', 'DOUBLE', 'TIMES', 'THIRD', 'x', 'y')",double,4,"(1, 3, 6, 5)",5,5,3,3,TIMES,decrease,third,UUBUxy,,,,,0,3,3,14,,,,,,space,10.5813649998,5,1,3.97386656853,2017_May_19_0918,None,KRITL,001,31056,
,,,,,,,,"('ADD', 'TRIPLE', 'HALF', 'x', 'y')",triple,3,"(2, 6, 8)",8,8,2,4,half,ADD,0,BUUxy,,,,,0,4,4,5,,,,,,space,3.71672795084,8,1,4.64732413611,2017_May_19_0918,None,KRITL,001,31056,
,,,,,,,,"('THIRD', 'HALF', 'INCREASE', 'SUBTRACT', 'x', 'y')",half,4,"(5, 6, 3, 1)",1,1,2,7,increase,third,SUBTRACT,UUUBxy,,,,,0,5,5,17,,,,,,space,9.02980173589,1,1,3.26672443375,2017_May_19_0918,None,KRITL,001,31056,
,,,,,,,,"('DOUBLE', 'THIRD', 'ADD', 'x', 'y')",third,3,"(9, 3, 6)",6,6,4,5,ADD,double,0,UUBxy,,,,,0,6,6,8,,,,,,space,5.28215216985,6,1,2.50037358468,2017_May_19_0918,None,KRITL,001,31056,
,,,,,,,,"('DECREASE', 'ADD', 'THIRD', 'HALF', 'x', 'y')",ADD,4,"(3, 1, 7, 6)",6,6,6,6,third,decrease,half,UBUUxy,,,,,0,7,7,12,,,,,,space,7.31659510522,6,1,5.47868502385,2017_May_19_0918,None,KRITL,001,31056,
,,,,,,,,"('DECREASE', 'SUBTRACT', 'DOUBLE', 'THIRD', 'x', 'y')",SUBTRACT,4,"(3, 6, 4, 3)",3,3,2,9,double,decrease,third,UBUUxy,,,,,0,8,8,13,,,,,,space,7.47710074473,3,1,10.3242186831,2017_May_19_0918,None,KRITL,001,31056,
,,,,,,,,"('INCREASE', 'ADD', 'HALF', 'x', 'y')",ADD,3,"(1, 4, 5)",5,5,3,2,half,increase,0,UBUxy,,,,,0,9,9,7,,,,,,space,7.08113419963,5,1,9.60265250399,2017_May_19_0918,None,KRITL,001,31056,
,,,,,,,,"('ADD', 'DECREASE', 'THIRD', 'DOUBLE', 'x', 'y')",decrease,4,"(18, 6, 5, 9)",9,9,4,9,third,ADD,double,BUUUxy,,,,,0,10,10,10,,,,,,space,7.04274928954,9,1,3.6701955694,2017_May_19_0918,None,KRITL,001,31056,
,,,,,,,,"('DECREASE', 'TIMES', 'x', 'y')",TIMES,2,"(9, 8)",8,8,3,3,0,decrease,0,UBxy,,,,,0,11,11,2,,,,,,space,5.53812926274,8,1,1.60404535371,2017_May_19_0918,None,KRITL,001,31056,
,,,,,,,,"('HALF', 'ADD', 'x', 'y')",ADD,2,"(12, 6)",6,6,8,4,0,half,0,UBxy,,,,,0,12,12,3,,,,,,space,1.71546878677,6,1,5.30138119601,2017_May_19_0918,None,KRITL,001,31056,
,,,,,,,,"('DIVIDE', 'DECREASE', 'x', 'y')",decrease,2,"(8, 2)",2,2,4,9,0,DIVIDE,0,BUxy,,,,,0,13,13,1,,,,,,space,4.55153386714,2,1,1.79435832845,2017_May_19_0918,None,KRITL,001,31056,
,,,,,,,,"('INCREASE', 'HALF', 'THIRD', 'TIMES', 'x', 'y')",half,4,"(12, 4, 2, 3)",3,3,4,3,third,increase,TIMES,UUUBxy,,,,,0,14,14,16,,,,,,space,8.18190303177,3,1,3.62032874755,2017_May_19_0918,None,KRITL,001,31056,
,,,,,,,,"('ADD', 'TRIPLE', 'DOUBLE', 'DECREASE', 'x', 'y')",triple,4,"(1, 2, 6, 8)",8,8,2,2,double,ADD,decrease,BUUUxy,,,,,0,15,15,11,,,,,,space,7.68836350995,8,1,6.28962946346,2017_May_19_0918,None,KRITL,001,31056,
,,,,,,,,"('ADD', 'DECREASE', 'x', 'y')",decrease,2,"(2, 7)",7,7,5,3,0,ADD,0,BUxy,,,,,0,16,16,0,,,,,,space,2.20834303019,7,1,1.95654343674,2017_May_19_0918,None,KRITL,001,31056,
,,,,,,,,"('HALF', 'INCREASE', 'TIMES', 'x', 'y')",increase,3,"(9, 10, 5)",5,5,3,3,TIMES,half,0,UUBxy,,,,,0,17,17,9,,,,,,space,6.22566931159,5,1,2.31058590335,2017_May_19_0918,None,KRITL,001,31056,
,,,,,,,,"('THIRD', 'INCREASE', 'HALF', 'TIMES', 'x', 'y')",increase,4,"(28, 14, 15, 5)",5,5,4,7,half,third,TIMES,UUUBxy,,,,,0,0,0,17,,,,,,space,10.5427018696,5,1,5.61752030044,2017_May_19_0918,None,KRITL,001,31056,
,,,,,,,,"('TRIPLE', 'INCREASE', 'SUBTRACT', 'x', 'y')",increase,3,"(1, 2, 6)",6,6,2,3,SUBTRACT,triple,0,UUBxy,,,,,0,1,1,9,,,,,,space,5.11100312835,6,1,4.41920438875,2017_May_19_0918,None,KRITL,001,31056,
,,,,,,,,"('TRIPLE', 'INCREASE', 'DIVIDE', 'DOUBLE', 'x', 'y')",increase,4,"(16, 2, 3, 9)",9,9,8,8,DIVIDE,triple,double,UUBUxy,,,,,0,2,2,15,,,,,,space,6.1948288877,9,1,5.70211352699,2017_May_19_0918,None,KRITL,001,31056,
,,,,,,,,"('HALF', 'TIMES', 'DECREASE', 'x', 'y')",TIMES,3,"(8, 16, 8)",8,8,2,9,decrease,half,0,UBUxy,,,,,0,3,3,6,,,,,,space,4.83587295108,8,1,4.34129159164,2017_May_19_0918,None,KRITL,001,31056,
,,,,,,,,"('TRIPLE', 'DOUBLE', 'SUBTRACT', 'INCREASE', 'x', 'y')",double,4,"(5, 1, 2, 6)",6,6,4,4,SUBTRACT,triple,increase,UUBUxy,,,,,0,4,4,14,,,,,,space,8.21173521434,6,1,12.660871875,2017_May_19_0918,None,KRITL,001,31056,
,,,,,,,,"('DIVIDE', 'DOUBLE', 'INCREASE', 'TRIPLE', 'x', 'y')",double,4,"(9, 10, 20, 5)",5,5,4,3,increase,DIVIDE,triple,BUUUxy,,,,,0,5,5,10,,,,,,space,8.80569255608,5,1,10.1012489803,2017_May_19_0918,None,KRITL,001,31056,
,,,,,,,,"('ADD', 'HALF', 'x', 'y')",half,2,"(2, 7)",7,7,5,4,0,ADD,0,BUxy,,,,,0,6,6,0,,,,,,space,1.98596581363,7,1,1.92657231924,2017_May_19_0918,None,KRITL,001,31056,
,,,,,,,,"('DECREASE', 'THIRD', 'DOUBLE', 'ADD', 'x', 'y')",third,4,"(9, 18, 6, 5)",5,5,4,5,double,decrease,ADD,UUUBxy,,,,,0,7,7,16,,,,,,space,8.34066725906,5,1,2.81720281474,2017_May_19_0918,None,KRITL,001,31056,
,,,,,,,,"('HALF', 'SUBTRACT', 'DECREASE', 'TRIPLE', 'x', 'y')",SUBTRACT,4,"(15, 14, 10, 5)",5,5,4,5,decrease,half,triple,UBUUxy,,,,,0,8,8,12,,,,,,space,10.7873671324,5,1,5.54553726374,2017_May_19_0918,None,KRITL,001,31056,
,,,,,,,,"('TRIPLE', 'HALF', 'ADD', 'x', 'y')",half,3,"(6, 3, 9)",9,9,3,3,ADD,triple,0,UUBxy,,,,,0,9,9,8,,,,,,space,5.42534867616,9,1,4.64503118338,2017_May_19_0918,None,KRITL,001,31056,
,,,,,,,,"('TIMES', 'HALF', 'INCREASE', 'THIRD', 'x', 'y')",half,4,"(1, 2, 1, 9)",9,9,9,3,increase,TIMES,third,BUUUxy,,,,,0,10,10,11,,,,,,space,7.46303681156,None,0,,2017_May_19_0918,None,KRITL,001,31056,
,,,,,,,,"('SUBTRACT', 'TRIPLE', 'x', 'y')",triple,2,"(12, 9)",9,9,3,4,0,SUBTRACT,0,BUxy,,,,,0,11,11,1,,,,,,space,3.70351652568,9,1,2.91643881204,2017_May_19_0918,None,KRITL,001,31056,
,,,,,,,,"('INCREASE', 'TIMES', 'TRIPLE', 'HALF', 'x', 'y')",TIMES,4,"(1, 3, 6, 7)",7,7,2,2,triple,increase,half,UBUUxy,,,,,0,12,12,13,,,,,,space,13.0488351331,7,1,7.68316062109,2017_May_19_0918,None,KRITL,001,31056,
,,,,,,,,"('DOUBLE', 'DIVIDE', 'x', 'y')",DIVIDE,2,"(1, 2)",2,2,8,8,0,double,0,UBxy,,,,,0,13,13,2,,,,,,space,1.74615662708,2,1,3.78109790862,2017_May_19_0918,None,KRITL,001,31056,
,,,,,,,,"('INCREASE', 'DIVIDE', 'TRIPLE', 'x', 'y')",DIVIDE,3,"(6, 2, 3)",3,3,3,2,triple,increase,0,UBUxy,,,,,0,14,14,7,,,,,,space,7.79453540931,3,1,5.97325658426,2017_May_19_0918,None,KRITL,001,31056,
,,,,,,,,"('INCREASE', 'DIVIDE', 'x', 'y')",DIVIDE,2,"(4, 5)",5,5,2,8,0,increase,0,UBxy,,,,,0,15,15,3,,,,,,space,3.9917209429,5,1,1.65097949177,2017_May_19_0918,None,KRITL,001,31056,
,,,,,,,,"('SUBTRACT', 'INCREASE', 'HALF', 'x', 'y')",increase,3,"(4, 5, 3)",3,3,2,8,half,SUBTRACT,0,BUUxy,,,,,0,16,16,5,,,,,,space,4.84996628109,3,1,2.24402798153,2017_May_19_0918,None,KRITL,001,31056,
,,,,,,,,"('DIVIDE', 'TRIPLE', 'DECREASE', 'x', 'y')",triple,3,"(6, 18, 9)",9,9,2,7,decrease,DIVIDE,0,BUUxy,,,,,0,17,17,4,,,,,,space,3.37913616025,9,1,4.38959163253,2017_May_19_0918,None,KRITL,001,31056,
,,,,,,,,"('THIRD', 'INCREASE', 'HALF', 'DIVIDE', 'x', 'y')",increase,4,"(4, 2, 3, 1)",1,1,2,8,half,third,DIVIDE,UUUBxy,,,,,0,0,0,16,,,,,,space,4.91481778689,9,0,3.84606735164,2017_May_19_0918,None,KRITL,001,31056,
,,,,,,,,"('THIRD', 'TIMES', 'DECREASE', 'x', 'y')",TIMES,3,"(3, 15, 5)",5,5,5,4,decrease,third,0,UBUxy,,,,,0,1,1,7,,,,,,space,5.07372829842,5,1,5.60716001771,2017_May_19_0918,None,KRITL,001,31056,
,,,,,,,,"('TIMES', 'DECREASE', 'HALF', 'x', 'y')",decrease,3,"(4, 3, 9)",9,9,3,8,half,TIMES,0,BUUxy,,,,,0,2,2,4,,,,,,space,3.89231871348,9,1,3.02568058041,2017_May_19_0918,None,KRITL,001,31056,
,,,,,,,,"('THIRD', 'DOUBLE', 'ADD', 'INCREASE', 'x', 'y')",double,4,"(10, 12, 24, 8)",8,8,2,9,ADD,third,increase,UUBUxy,,,,,0,3,3,14,,,,,,space,10.211302311,8,1,8.55098022672,2017_May_19_0918,None,KRITL,001,31056,
,,,,,,,,"('TIMES', 'DECREASE', 'x', 'y')",decrease,2,"(2, 4)",4,4,2,3,0,TIMES,0,BUxy,,,,,0,4,4,0,,,,,,space,3.02742794179,4,1,2.22999309516,2017_May_19_0918,None,KRITL,001,31056,
,,,,,,,,"('TRIPLE', 'SUBTRACT', 'DOUBLE', 'DECREASE', 'x', 'y')",SUBTRACT,4,"(2, 4, 1, 3)",3,3,3,3,double,triple,decrease,UBUUxy,,,,,0,5,5,13,,,,,,space,6.99856900435,3,1,5.69739253621,2017_May_19_0918,None,KRITL,001,31056,
,,,,,,,,"('TIMES', 'THIRD', 'HALF', 'x', 'y')",third,3,"(3, 1, 5)",5,5,5,6,half,TIMES,0,BUUxy,,,,,0,6,6,5,,,,,,space,3.40953108214,5,1,1.43288861297,2017_May_19_0918,None,KRITL,001,31056,
,,,,,,,,"('TRIPLE', 'HALF', 'ADD', 'DECREASE', 'x', 'y')",half,4,"(1, 4, 2, 6)",6,6,3,2,ADD,triple,decrease,UUBUxy,,,,,0,7,7,15,,,,,,space,5.66717679496,None,0,,2017_May_19_0918,None,KRITL,001,31056,
,,,,,,,,"('THIRD', 'ADD', 'x', 'y')",ADD,2,"(9, 3)",3,3,5,4,0,third,0,UBxy,,,,,0,8,8,2,,,,,,space,3.4983291052,3,1,1.75132241996,2017_May_19_0918,None,KRITL,001,31056,
,,,,,,,,"('TIMES', 'INCREASE', 'x', 'y')",increase,2,"(3, 6)",6,6,2,2,0,TIMES,0,BUxy,,,,,0,9,9,1,,,,,,space,6.19593931793,6,1,3.2887468586,2017_May_19_0918,None,KRITL,001,31056,
,,,,,,,,"('INCREASE', 'DIVIDE', 'TRIPLE', 'DOUBLE', 'x', 'y')",DIVIDE,4,"(6, 18, 3, 4)",4,4,6,3,triple,increase,double,UBUUxy,,,,,0,10,10,12,,,,,,space,9.87324857013,4,1,3.15798766108,2017_May_19_0918,None,KRITL,001,31056,
,,,,,,,,"('TIMES', 'INCREASE', 'THIRD', 'DOUBLE', 'x', 'y')",increase,4,"(6, 2, 3, 9)",9,9,3,3,third,TIMES,double,BUUUxy,,,,,0,11,11,11,,,,,,space,9.84563584812,9,1,2.86783815362,2017_May_19_0918,None,KRITL,001,31056,
,,,,,,,,"('SUBTRACT', 'HALF', 'INCREASE', 'TRIPLE', 'x', 'y')",half,4,"(15, 16, 8, 3)",3,3,5,5,increase,SUBTRACT,triple,BUUUxy,,,,,0,12,12,10,,,,,,space,8.6451893663,3,1,7.82784936647,2017_May_19_0918,None,KRITL,001,31056,
,,,,,,,,"('THIRD', 'SUBTRACT', 'x', 'y')",SUBTRACT,2,"(3, 1)",1,1,2,5,0,third,0,UBxy,,,,,0,13,13,3,,,,,,space,1.7016977719,1,1,1.58742634614,2017_May_19_0918,None,KRITL,001,31056,
,,,,,,,,"('TRIPLE', 'HALF', 'DIVIDE', 'x', 'y')",half,3,"(2, 1, 3)",3,3,2,4,DIVIDE,triple,0,UUBxy,,,,,0,14,14,9,,,,,,space,5.77772917191,3,1,3.02941257786,2017_May_19_0918,None,KRITL,001,31056,
,,,,,,,,"('THIRD', 'DECREASE', 'TIMES', 'x', 'y')",decrease,3,"(25, 24, 8)",8,8,5,5,TIMES,third,0,UUBxy,,,,,0,15,15,8,,,,,,space,5.68705605099,3,0,4.19178631587,2017_May_19_0918,None,KRITL,001,31056,
,,,,,,,,"('THIRD', 'ADD', 'INCREASE', 'x', 'y')",ADD,3,"(8, 15, 5)",5,5,7,7,increase,third,0,UBUxy,,,,,0,16,16,6,,,,,,space,5.38208179246,5,1,6.64528070646,2017_May_19_0918,None,KRITL,001,31056,
,,,,,,,,"('TRIPLE', 'DECREASE', 'HALF', 'TIMES', 'x', 'y')",decrease,4,"(6, 3, 2, 6)",6,6,2,3,half,triple,TIMES,UUUBxy,,,,,0,17,17,17,,,,,,space,7.17182306887,6,1,4.86691950273,2017_May_19_0918,None,KRITL,001,31056,
,,,,,,,,"('INCREASE', 'DIVIDE', 'TRIPLE', 'HALF', 'x', 'y')",DIVIDE,4,"(2, 6, 2, 3)",3,3,3,4,triple,increase,half,UBUUxy,,,,,0,0,0,12,,,,,,space,7.13423957233,3,1,4.99731858913,2017_May_19_0918,None,KRITL,001,31056,
,,,,,,,,"('SUBTRACT', 'INCREASE', 'x', 'y')",increase,2,"(6, 2)",2,2,4,5,0,SUBTRACT,0,BUxy,,,,,0,1,1,1,,,,,,space,5.65641405573,2,1,1.97592679632,2017_May_19_0918,None,KRITL,001,31056,
,,,,,,,,"('TIMES', 'INCREASE', 'HALF', 'TRIPLE', 'x', 'y')",increase,4,"(6, 3, 4, 8)",8,8,2,2,half,TIMES,triple,BUUUxy,,,,,0,2,2,11,,,,,,space,8.3021896088,8,1,2.91674677888,2017_May_19_0918,None,KRITL,001,31056,
,,,,,,,,"('TRIPLE', 'DECREASE', 'HALF', 'SUBTRACT', 'x', 'y')",decrease,4,"(4, 2, 1, 3)",3,3,5,9,half,triple,SUBTRACT,UUUBxy,,,,,0,3,3,17,,,,,,space,9.24791081273,3,1,11.8605550892,2017_May_19_0918,None,KRITL,001,31056,
,,,,,,,,"('DOUBLE', 'ADD', 'x', 'y')",ADD,2,"(4, 8)",8,8,2,2,0,double,0,UBxy,,,,,0,4,4,2,,,,,,space,1.81476392772,8,1,1.84444142692,2017_May_19_0918,None,KRITL,001,31056,
,,,,,,,,"('TIMES', 'THIRD', 'DOUBLE', 'x', 'y')",third,3,"(6, 2, 4)",4,4,2,3,double,TIMES,0,BUUxy,,,,,0,5,5,5,,,,,,space,6.183746633,4,1,3.44402511185,2017_May_19_0918,None,KRITL,001,31056,
,,,,,,,,"('DIVIDE', 'TRIPLE', 'HALF', 'x', 'y')",triple,3,"(4, 12, 4)",4,4,3,8,half,DIVIDE,0,BUUxy,,,,,0,6,6,4,,,,,,space,5.55686799181,4,1,4.37051134033,2017_May_19_0918,None,KRITL,001,31056,
,,,,,,,,"('DECREASE', 'TRIPLE', 'HALF', 'ADD', 'x', 'y')",triple,4,"(6, 3, 9, 8)",8,8,2,4,half,decrease,ADD,UUUBxy,,,,,0,7,7,16,,,,,,space,8.0839139499,8,1,4.00796829059,2017_May_19_0918,None,KRITL,001,31056,
,,,,,,,,"('THIRD', 'INCREASE', 'SUBTRACT', 'x', 'y')",increase,3,"(2, 3, 1)",1,1,6,8,SUBTRACT,third,0,UUBxy,,,,,0,8,8,9,,,,,,space,7.60579166538,1,1,2.33653910423,2017_May_19_0918,None,KRITL,001,31056,
,,,,,,,,"('INCREASE', 'ADD', 'TRIPLE', 'x', 'y')",ADD,3,"(6, 8, 9)",9,9,2,2,triple,increase,0,UBUxy,,,,,0,9,9,6,,,,,,space,5.73920462688,9,1,3.69910665136,2017_May_19_0918,None,KRITL,001,31056,
,,,,,,,,"('THIRD', 'INCREASE', 'ADD', 'DOUBLE', 'x', 'y')",increase,4,"(16, 20, 21, 7)",7,7,4,8,ADD,third,double,UUBUxy,,,,,0,10,10,14,,,,,,space,8.16291512968,7,1,11.1429637814,2017_May_19_0918,None,KRITL,001,31056,
,,,,,,,,"('INCREASE', 'SUBTRACT', 'THIRD', 'x', 'y')",SUBTRACT,3,"(3, 1, 2)",2,2,2,9,third,increase,0,UBUxy,,,,,0,11,11,7,,,,,,space,5.97122750315,2,1,3.06136238202,2017_May_19_0918,None,KRITL,001,31056,
,,,,,,,,"('DIVIDE', 'DOUBLE', 'INCREASE', 'THIRD', 'x', 'y')",double,4,"(2, 3, 6, 2)",2,2,3,6,increase,DIVIDE,third,BUUUxy,,,,,0,12,12,10,,,,,,space,6.15219403582,2,1,6.51139774569,2017_May_19_0918,None,KRITL,001,31056,
,,,,,,,,"('DOUBLE', 'TIMES', 'x', 'y')",TIMES,2,"(4, 8)",8,8,2,2,0,double,0,UBxy,,,,,0,13,13,3,,,,,,space,3.71504568227,8,1,3.73610606091,2017_May_19_0918,None,KRITL,001,31056,
,,,,,,,,"('DECREASE', 'TRIPLE', 'DIVIDE', 'x', 'y')",triple,3,"(2, 6, 5)",5,5,4,8,DIVIDE,decrease,0,UUBxy,,,,,0,14,14,8,,,,,,space,5.41360394284,5,1,6.02216695936,2017_May_19_0918,None,KRITL,001,31056,
,,,,,,,,"('TRIPLE', 'DOUBLE', 'SUBTRACT', 'DECREASE', 'x', 'y')",double,4,"(4, 1, 2, 6)",6,6,3,5,SUBTRACT,triple,decrease,UUBUxy,,,,,0,15,15,15,,,,,,space,7.0631251419,6,1,2.23087744985,2017_May_19_0918,None,KRITL,001,31056,
,,,,,,,,"('ADD', 'THIRD', 'x', 'y')",third,2,"(1, 7)",7,7,6,3,0,ADD,0,BUxy,,,,,0,16,16,0,,,,,,space,3.57018790522,7,1,2.45193915837,2017_May_19_0918,None,KRITL,001,31056,
,,,,,,,,"('THIRD', 'TIMES', 'HALF', 'INCREASE', 'x', 'y')",TIMES,4,"(8, 4, 12, 4)",4,4,3,7,half,third,increase,UBUUxy,,,,,0,17,17,13,,,,,,space,6.99590964115,4,1,4.72876385273,2017_May_19_0918,None,KRITL,001,31056,
,,,,,,,,"('DECREASE', 'TRIPLE', 'HALF', 'SUBTRACT', 'x', 'y')",triple,4,"(4, 2, 6, 5)",5,5,2,6,half,decrease,SUBTRACT,UUUBxy,,,,,0,0,0,16,,,,,,space,6.6066368242,5,1,4.67772360751,2017_May_19_0918,None,KRITL,001,31056,
,,,,,,,,"('TIMES', 'DOUBLE', 'x', 'y')",double,2,"(4, 8)",8,8,2,2,0,TIMES,0,BUxy,,,,,0,1,1,1,,,,,,space,3.34453959146,8,1,4.24416586675,2017_May_19_0918,None,KRITL,001,31056,
,,,,,,,,"('SUBTRACT', 'TRIPLE', 'DECREASE', 'x', 'y')",triple,3,"(4, 12, 3)",3,3,9,5,decrease,SUBTRACT,0,BUUxy,,,,,0,2,2,4,,,,,,space,5.12278460769,3,1,5.71718395164,2017_May_19_0918,None,KRITL,001,31056,
,,,,,,,,"('DOUBLE', 'DIVIDE', 'TRIPLE', 'INCREASE', 'x', 'y')",DIVIDE,4,"(5, 15, 3, 6)",6,6,5,4,triple,double,increase,UBUUxy,,,,,0,3,3,12,,,,,,space,5.78375867161,6,1,5.47460061428,2017_May_19_0918,None,KRITL,001,31056,
,,,,,,,,"('INCREASE', 'SUBTRACT', 'x', 'y')",SUBTRACT,2,"(3, 4)",4,4,3,6,0,increase,0,UBxy,,,,,0,4,4,2,,,,,,space,2.35804533481,4,1,6.64774899022,2017_May_19_0918,None,KRITL,001,31056,
,,,,,,,,"('SUBTRACT', 'DOUBLE', 'TRIPLE', 'DECREASE', 'x', 'y')",double,4,"(2, 6, 12, 8)",8,8,4,3,triple,SUBTRACT,decrease,BUUUxy,,,,,0,5,5,10,,,,,,space,10.4206875288,8,1,7.68521804921,2017_May_19_0918,None,KRITL,001,31056,
,,,,,,,,"('DECREASE', 'TRIPLE', 'DIVIDE', 'DOUBLE', 'x', 'y')",triple,4,"(6, 2, 6, 5)",5,5,3,3,DIVIDE,decrease,double,UUBUxy,,,,,0,6,6,14,,,,,,space,8.95970464591,5,1,5.66989565175,2017_May_19_0918,None,KRITL,001,31056,
,,,,,,,,"('DIVIDE', 'THIRD', 'x', 'y')",third,2,"(3, 1)",1,1,3,9,0,DIVIDE,0,BUxy,,,,,0,7,7,0,,,,,,space,2.61083497142,1,1,2.26250143931,2017_May_19_0918,None,KRITL,001,31056,
,,,,,,,,"('SUBTRACT', 'TRIPLE', 'DECREASE', 'DOUBLE', 'x', 'y')",triple,4,"(4, 3, 9, 1)",1,1,8,2,decrease,SUBTRACT,double,BUUUxy,,,,,0,8,8,11,,,,,,space,8.40054895077,1,1,2.99778158916,2017_May_19_0918,None,KRITL,001,31056,
,,,,,,,,"('TIMES', 'HALF', 'INCREASE', 'x', 'y')",half,3,"(6, 3, 9)",9,9,3,5,increase,TIMES,0,BUUxy,,,,,0,9,9,5,,,,,,space,2.67787654104,9,1,2.85415392951,2017_May_19_0918,None,KRITL,001,31056,
,,,,,,,,"('THIRD', 'DIVIDE', 'DECREASE', 'x', 'y')",DIVIDE,3,"(6, 3, 1)",1,1,2,7,decrease,third,0,UBUxy,,,,,0,10,10,6,,,,,,space,6.4991704144,1,1,3.51255962043,2017_May_19_0918,None,KRITL,001,31056,
,,,,,,,,"('DOUBLE', 'THIRD', 'TIMES', 'x', 'y')",third,3,"(12, 4, 8)",8,8,6,2,TIMES,double,0,UUBxy,,,,,0,11,11,9,,,,,,space,5.34845251939,8,1,6.43778983434,2017_May_19_0918,None,KRITL,001,31056,
,,,,,,,,"('HALF', 'TRIPLE', 'INCREASE', 'SUBTRACT', 'x', 'y')",triple,4,"(1, 2, 6, 3)",3,3,2,3,increase,half,SUBTRACT,UUUBxy,,,,,0,12,12,17,,,,,,space,8.69216340024,3,1,3.40012374672,2017_May_19_0918,None,KRITL,001,31056,
,,,,,,,,"('INCREASE', 'ADD', 'HALF', 'TRIPLE', 'x', 'y')",ADD,4,"(6, 3, 6, 7)",7,7,3,2,half,increase,triple,UBUUxy,,,,,0,13,13,13,,,,,,space,6.77262007282,7,1,2.99894696358,2017_May_19_0918,None,KRITL,001,31056,
,,,,,,,,"('THIRD', 'DIVIDE', 'x', 'y')",DIVIDE,2,"(3, 1)",1,1,2,6,0,third,0,UBxy,,,,,0,14,14,3,,,,,,space,2.62744942959,1,1,3.06210080243,2017_May_19_0918,None,KRITL,001,31056,
,,,,,,,,"('THIRD', 'DECREASE', 'TIMES', 'HALF', 'x', 'y')",decrease,4,"(4, 16, 15, 5)",5,5,4,8,TIMES,third,half,UUBUxy,,,,,0,15,15,15,,,,,,space,11.8152720729,5,1,7.41491910105,2017_May_19_0918,None,KRITL,001,31056,
,,,,,,,,"('DOUBLE', 'DECREASE', 'ADD', 'x', 'y')",decrease,3,"(4, 3, 6)",6,6,2,2,ADD,double,0,UUBxy,,,,,0,16,16,8,,,,,,space,3.58971369942,6,1,3.18811696162,2017_May_19_0918,None,KRITL,001,31056,
,,,,,,,,"('THIRD', 'TIMES', 'HALF', 'x', 'y')",TIMES,3,"(3, 18, 6)",6,6,6,6,half,third,0,UBUxy,,,,,0,17,17,7,,,,,,space,4.96758964541,6,1,1.82549447042,2017_May_19_0918,None,KRITL,001,31056,
,,,,,,,,"('INCREASE', 'SUBTRACT', 'HALF', 'x', 'y')",SUBTRACT,3,"(4, 2, 3)",3,3,2,8,half,increase,0,UBUxy,,,,,0,0,0,7,,,,,,space,6.18536940799,3,1,5.9559023059,2017_May_19_0918,None,KRITL,001,31056,
,,,,,,,,"('THIRD', 'TIMES', 'DOUBLE', 'DECREASE', 'x', 'y')",TIMES,4,"(1, 2, 6, 2)",2,2,3,2,double,third,decrease,UBUUxy,,,,,0,1,1,13,,,,,,space,6.90366134013,None,0,,2017_May_19_0918,None,KRITL,001,31056,
,,,,,,,,"('HALF', 'TRIPLE', 'INCREASE', 'DIVIDE', 'x', 'y')",triple,4,"(3, 4, 12, 6)",6,6,3,9,increase,half,DIVIDE,UUUBxy,,,,,0,2,2,16,,,,,,space,10.2910650086,6,1,3.04558748344,2017_May_19_0918,None,KRITL,001,31056,
,,,,,,,,"('ADD', 'HALF', 'THIRD', 'x', 'y')",half,3,"(2, 1, 9)",9,9,8,6,third,ADD,0,BUUxy,,,,,0,3,3,4,,,,,,space,2.36786457582,9,1,1.51025231928,2017_May_19_0918,None,KRITL,001,31056,
,,,,,,,,"('THIRD', 'DOUBLE', 'ADD', 'DECREASE', 'x', 'y')",double,4,"(5, 12, 24, 8)",8,8,7,6,ADD,third,decrease,UUBUxy,,,,,0,4,4,14,,,,,,space,9.95849517628,8,1,9.57429086277,2017_May_19_0918,None,KRITL,001,31056,
,,,,,,,,"('INCREASE', 'ADD', 'x', 'y')",ADD,2,"(5, 6)",6,6,2,3,0,increase,0,UBxy,,,,,0,5,5,3,,,,,,space,2.35545631405,6,1,1.60411744588,2017_May_19_0918,None,KRITL,001,31056,
,,,,,,,,"('SUBTRACT', 'DECREASE', 'x', 'y')",decrease,2,"(5, 3)",3,3,2,6,0,SUBTRACT,0,BUxy,,,,,0,6,6,1,,,,,,space,2.93165622093,3,1,2.85260849621,2017_May_19_0918,None,KRITL,001,31056,
,,,,,,,,"('THIRD', 'HALF', 'ADD', 'x', 'y')",half,3,"(6, 3, 1)",1,1,3,3,ADD,third,0,UUBxy,,,,,0,7,7,9,,,,,,space,5.11437186494,1,1,2.97822709824,2017_May_19_0918,None,KRITL,001,31056,
,,,,,,,,"('SUBTRACT', 'DECREASE', 'TRIPLE', 'DOUBLE', 'x', 'y')",decrease,4,"(6, 18, 17, 8)",8,8,9,3,triple,SUBTRACT,double,BUUUxy,,,,,0,8,8,11,,,,,,space,6.35799354035,8,1,7.7335180901,2017_May_19_0918,None,KRITL,001,31056,
,,,,,,,,"('HALF', 'ADD', 'TRIPLE', 'x', 'y')",ADD,3,"(9, 12, 6)",6,6,3,3,triple,half,0,UBUxy,,,,,0,9,9,6,,,,,,space,2.73909823829,6,1,7.59461247094,2017_May_19_0918,None,KRITL,001,31056,
,,,,,,,,"('THIRD', 'INCREASE', 'DIVIDE', 'DOUBLE', 'x', 'y')",increase,4,"(18, 2, 3, 1)",1,1,9,9,DIVIDE,third,double,UUBUxy,,,,,0,10,10,15,,,,,,space,7.60062867228,1,1,4.69388696423,2017_May_19_0918,None,KRITL,001,31056,
,,,,,,,,"('ADD', 'DOUBLE', 'DECREASE', 'THIRD', 'x', 'y')",double,4,"(2, 1, 2, 8)",8,8,6,6,decrease,ADD,third,BUUUxy,,,,,0,11,11,10,,,,,,space,8.55296521273,8,1,9.71406998765,2017_May_19_0918,None,KRITL,001,31056,
,,,,,,,,"('INCREASE', 'TRIPLE', 'DIVIDE', 'x', 'y')",triple,3,"(2, 6, 7)",7,7,3,6,DIVIDE,increase,0,UUBxy,,,,,0,12,12,8,,,,,,space,5.36162229895,7,1,7.1567435452,2017_May_19_0918,None,KRITL,001,31056,
,,,,,,,,"('THIRD', 'DOUBLE', 'INCREASE', 'TIMES', 'x', 'y')",double,4,"(8, 9, 18, 6)",6,6,4,2,increase,third,TIMES,UUUBxy,,,,,0,13,13,17,,,,,,space,10.8064092788,6,1,3.5554261473,2017_May_19_0918,None,KRITL,001,31056,
,,,,,,,,"('DIVIDE', 'INCREASE', 'x', 'y')",increase,2,"(4, 2)",2,2,2,3,0,DIVIDE,0,BUxy,,,,,0,14,14,0,,,,,,space,2.59858419269,2,1,1.76922858879,2017_May_19_0918,None,KRITL,001,31056,
,,,,,,,,"('DECREASE', 'DIVIDE', 'x', 'y')",DIVIDE,2,"(2, 1)",1,1,4,8,0,decrease,0,UBxy,,,,,0,15,15,2,,,,,,space,1.81113271927,1,1,4.94867523538,2017_May_19_0918,None,KRITL,001,31056,
,,,,,,,,"('DOUBLE', 'ADD', 'INCREASE', 'THIRD', 'x', 'y')",ADD,4,"(1, 2, 4, 8)",8,8,2,3,increase,double,third,UBUUxy,,,,,0,16,16,12,,,,,,space,7.30257281754,8,1,7.90932862891,2017_May_19_0918,None,KRITL,001,31056,
,,,,,,,,"('DIVIDE', 'DECREASE', 'TRIPLE', 'x', 'y')",decrease,3,"(9, 8, 4)",4,4,2,3,triple,DIVIDE,0,BUUxy,,,,,0,17,17,5,,,,,,space,10.5202304432,4,1,3.07469734398,2017_May_19_0918,None,KRITL,001,31056,
,,,,,,,,"('DECREASE', 'DIVIDE', 'TRIPLE', 'DOUBLE', 'x', 'y')",DIVIDE,4,"(6, 18, 2, 1)",1,1,9,3,triple,decrease,double,UBUUxy,,,,,0,0,0,12,,,,,,space,5.24058855255,3,0,8.70735281194,2017_May_19_0918,None,KRITL,001,31056,
,,,,,,,,"('TRIPLE', 'SUBTRACT', 'INCREASE', 'HALF', 'x', 'y')",SUBTRACT,4,"(3, 4, 1, 3)",3,3,3,6,increase,triple,half,UBUUxy,,,,,0,1,1,13,,,,,,space,6.55166790262,3,1,3.58807237633,2017_May_19_0918,None,KRITL,001,31056,
,,,,,,,,"('INCREASE', 'TRIPLE', 'HALF', 'ADD', 'x', 'y')",triple,4,"(4, 2, 6, 7)",7,7,2,2,half,increase,ADD,UUUBxy,,,,,0,2,2,17,,,,,,space,9.20370883006,7,1,3.67209026508,2017_May_19_0918,None,KRITL,001,31056,
,,,,,,,,"('THIRD', 'INCREASE', 'SUBTRACT', 'HALF', 'x', 'y')",increase,4,"(4, 2, 3, 1)",1,1,2,8,SUBTRACT,third,half,UUBUxy,,,,,0,3,3,15,,,,,,space,5.85626385198,1,1,4.42343123292,2017_May_19_0918,None,KRITL,001,31056,
,,,,,,,,"('INCREASE', 'HALF', 'TIMES', 'TRIPLE', 'x', 'y')",half,4,"(6, 12, 6, 7)",7,7,2,2,TIMES,increase,triple,UUBUxy,,,,,0,4,4,14,,,,,,space,5.32726685423,7,1,7.18543905043,2017_May_19_0918,None,KRITL,001,31056,
,,,,,,,,"('INCREASE', 'DIVIDE', 'HALF', 'x', 'y')",DIVIDE,3,"(2, 1, 2)",2,2,2,4,half,increase,0,UBUxy,,,,,0,5,5,7,,,,,,space,4.45147510839,2,1,3.87484929746,2017_May_19_0918,None,KRITL,001,31056,
,,,,,,,,"('TIMES', 'THIRD', 'x', 'y')",third,2,"(1, 4)",4,4,4,3,0,TIMES,0,BUxy,,,,,0,6,6,1,,,,,,space,2.62957895,4,1,1.73430375534,2017_May_19_0918,None,KRITL,001,31056,
,,,,,,,,"('TIMES', 'DECREASE', 'THIRD', 'DOUBLE', 'x', 'y')",decrease,4,"(6, 2, 1, 2)",2,2,2,3,third,TIMES,double,BUUUxy,,,,,0,7,7,11,,,,,,space,6.91394813068,2,1,5.54052895401,2017_May_19_0918,None,KRITL,001,31056,
,,,,,,,,"('TRIPLE', 'HALF', 'TIMES', 'x', 'y')",half,3,"(6, 3, 9)",9,9,3,2,TIMES,triple,0,UUBxy,,,,,0,8,8,9,,,,,,space,5.62016286538,9,1,7.0597147597,2017_May_19_0918,None,KRITL,001,31056,
,,,,,,,,"('TRIPLE', 'SUBTRACT', 'x', 'y')",SUBTRACT,2,"(2, 6)",6,6,6,8,0,triple,0,UBxy,,,,,0,9,9,3,,,,,,space,2.69474927126,6,1,3.50756110961,2017_May_19_0918,None,KRITL,001,31056,
,,,,,,,,"('DECREASE', 'HALF', 'DIVIDE', 'x', 'y')",half,3,"(4, 2, 1)",1,1,2,8,DIVIDE,decrease,0,UUBxy,,,,,0,10,10,8,,,,,,space,6.86925375101,1,1,3.38063679822,2017_May_19_0918,None,KRITL,001,31056,
,,,,,,,,"('INCREASE', 'TIMES', 'x', 'y')",TIMES,2,"(8, 9)",9,9,4,2,0,increase,0,UBxy,,,,,0,11,11,2,,,,,,space,2.05450592155,9,1,1.58788164705,2017_May_19_0918,None,KRITL,001,31056,
,,,,,,,,"('DOUBLE', 'TIMES', 'THIRD', 'x', 'y')",TIMES,3,"(1, 4, 8)",8,8,4,3,third,double,0,UBUxy,,,,,0,12,12,6,,,,,,space,4.75767773448,8,1,1.78440330201,2017_May_19_0918,None,KRITL,001,31056,
,,,,,,,,"('DECREASE', 'HALF', 'TRIPLE', 'ADD', 'x', 'y')",half,4,"(4, 12, 6, 5)",5,5,2,2,triple,decrease,ADD,UUUBxy,,,,,0,13,13,16,,,,,,space,9.42715728108,5,1,7.40048665751,2017_May_19_0918,None,KRITL,001,31056,
,,,,,,,,"('SUBTRACT', 'THIRD', 'x', 'y')",third,2,"(3, 1)",1,1,2,9,0,SUBTRACT,0,BUxy,,,,,0,14,14,0,,,,,,space,2.1939585316,1,1,1.94112374971,2017_May_19_0918,None,KRITL,001,31056,
,,,,,,,,"('SUBTRACT', 'DOUBLE', 'DECREASE', 'x', 'y')",double,3,"(8, 16, 7)",7,7,9,9,decrease,SUBTRACT,0,BUUxy,,,,,0,15,15,5,,,,,,space,4.53359340189,7,1,5.2977314397,2017_May_19_0918,None,KRITL,001,31056,
,,,,,,,,"('DIVIDE', 'DECREASE', 'THIRD', 'DOUBLE', 'x', 'y')",decrease,4,"(12, 4, 3, 1)",1,1,3,6,third,DIVIDE,double,BUUUxy,,,,,0,16,16,10,,,,,,space,6.74373873777,1,1,3.44400796376,2017_May_19_0918,None,KRITL,001,31056,
,,,,,,,,"('ADD', 'DECREASE', 'HALF', 'x', 'y')",decrease,3,"(3, 2, 6)",6,6,4,6,half,ADD,0,BUUxy,,,,,0,17,17,4,,,,,,space,2.13433301216,6,1,4.77569064172,2017_May_19_0918,None,KRITL,001,31056,
