operationc,operationb,operationa,correctresponse,valuey,operationd,condition,valuex,Rule,Operatora,Length,Intermediate,CorrectResponse,Result,Y,X,Operatorc,Operatorb,Operatord,Structure,practice_trials.thisRepN,practice_trials.thisTrialN,practice_trials.thisN,practice_trials.thisIndex,block.thisRepN,block.thisTrialN,block.thisN,block.thisIndex,practice_encoding.keys,practice_execution.keys,practice_execution.corr,practice_execution.rt,practice_encoding.rt,encoding.keys,execution.keys,execution.corr,encoding.rt,execution.rt,date,frameRate,expName,session,participant,
increase,DIVIDE,triple,3,3,0,3,2,,,,,,,,,,,,,0,0,0,4,,,,,None,3,1,4.941268984,,,,,,,2017_May_26_0943,257.490651699,KRITL,004,31057,
0,ADD,half,7,5,0,2,4,,,,,,,,,,,,,0,1,1,2,,,,,['space'],7,1,2.01784527558,[13.479573577875271],,,,,,2017_May_26_0943,257.490651699,KRITL,004,31057,
increase,DIVIDE,double,9,8,triple,4,8,,,,,,,,,,,,,0,2,2,5,,,,,['space'],9,1,5.00045145117,[17.800611454062164],,,,,,2017_May_26_0943,257.490651699,KRITL,004,31057,
0,decrease,TIMES,8,3,0,2,3,,,,,,,,,,,,,0,3,3,1,,,,,['space'],8,1,1.77886234992,[3.867586880689487],,,,,,2017_May_26_0943,257.490651699,KRITL,004,31057,
0,ADD,decrease,7,5,0,2,3,,,,,,,,,,,,,0,4,4,0,,,,,['space'],7,1,1.18864365481,[3.4704080664087087],,,,,,2017_May_26_0943,257.490651699,KRITL,004,31057,
ADD,triple ,half,8,2,0,3,4,,,,,,,,,,,,,0,5,5,3,,,,,None,7,0,10.2415390499,,,,,,,2017_May_26_0943,257.490651699,KRITL,004,31057,
,,,,,,,,"('THIRD', 'HALF', 'INCREASE', 'SUBTRACT', 'x', 'y')",half,4,"(5, 6, 3, 1)",1,1,2,7,increase,third,SUBTRACT,UUUBxy,,,,,0,0,0,17,,,,,,None,None,0,,,2017_May_26_0943,257.490651699,KRITL,004,31057,
,,,,,,,,"('DOUBLE', 'THIRD', 'ADD', 'x', 'y')",third,3,"(9, 3, 6)",6,6,4,5,ADD,double,0,UUBxy,,,,,0,1,1,8,,,,,,space,None,0,6.23288658331,,2017_May_26_0943,257.490651699,KRITL,004,31057,
,,,,,,,,"('DOUBLE', 'SUBTRACT', 'INCREASE', 'x', 'y')",SUBTRACT,3,"(4, 1, 2)",2,2,3,3,increase,double,0,UBUxy,,,,,0,2,2,6,,,,,,space,2,1,7.53983497899,3.61772222864,2017_May_26_0943,257.490651699,KRITL,004,31057,
,,,,,,,,"('DECREASE', 'DOUBLE', 'TIMES', 'THIRD', 'x', 'y')",double,4,"(1, 3, 6, 5)",5,5,3,3,TIMES,decrease,third,UUBUxy,,,,,0,3,3,14,,,,,,space,5,1,17.7825887478,4.76980217686,2017_May_26_0943,257.490651699,KRITL,004,31057,
,,,,,,,,"('INCREASE', 'ADD', 'HALF', 'x', 'y')",ADD,3,"(1, 4, 5)",5,5,3,2,half,increase,0,UBUxy,,,,,0,4,4,7,,,,,,space,5,1,8.96548287268,2.55090883444,2017_May_26_0943,257.490651699,KRITL,004,31057,
,,,,,,,,"('ADD', 'TRIPLE', 'DOUBLE', 'DECREASE', 'x', 'y')",triple,4,"(1, 2, 6, 8)",8,8,2,2,double,ADD,decrease,BUUUxy,,,,,0,5,5,11,,,,,,None,None,0,,,2017_May_26_0943,257.490651699,KRITL,004,31057,
,,,,,,,,"('DECREASE', 'TRIPLE', 'SUBTRACT', 'DOUBLE', 'x', 'y')",triple,4,"(6, 3, 9, 8)",8,8,3,3,SUBTRACT,decrease,double,UUBUxy,,,,,0,6,6,15,,,,,,space,8,1,8.41620311257,4.26061969227,2017_May_26_0943,257.490651699,KRITL,004,31057,
,,,,,,,,"('DECREASE', 'ADD', 'THIRD', 'HALF', 'x', 'y')",ADD,4,"(3, 1, 7, 6)",6,6,6,6,third,decrease,half,UBUUxy,,,,,0,7,7,12,,,,,,space,6,1,15.9048519116,5.71998679941,2017_May_26_0943,257.490651699,KRITL,004,31057,
,,,,,,,,"('HALF', 'ADD', 'x', 'y')",ADD,2,"(12, 6)",6,6,8,4,0,half,0,UBxy,,,,,0,8,8,3,,,,,,space,6,1,3.78080708999,5.03026438598,2017_May_26_0943,257.490651699,KRITL,004,31057,
,,,,,,,,"('ADD', 'DECREASE', 'x', 'y')",decrease,2,"(2, 7)",7,7,5,3,0,ADD,0,BUxy,,,,,0,9,9,0,,,,,,space,7,1,3.47837810684,1.92417927715,2017_May_26_0943,257.490651699,KRITL,004,31057,
,,,,,,,,"('DECREASE', 'TIMES', 'x', 'y')",TIMES,2,"(9, 8)",8,8,3,3,0,decrease,0,UBxy,,,,,0,10,10,2,,,,,,space,8,1,2.62427037233,1.30063402653,2017_May_26_0943,257.490651699,KRITL,004,31057,
,,,,,,,,"('ADD', 'DOUBLE', 'DECREASE', 'x', 'y')",double,3,"(1, 2, 7)",7,7,5,2,decrease,ADD,0,BUUxy,,,,,0,11,11,4,,,,,,space,7,1,8.02282558824,2.43542548921,2017_May_26_0943,257.490651699,KRITL,004,31057,
,,,,,,,,"('DECREASE', 'SUBTRACT', 'DOUBLE', 'THIRD', 'x', 'y')",SUBTRACT,4,"(3, 6, 4, 3)",3,3,2,9,double,decrease,third,UBUUxy,,,,,0,12,12,13,,,,,,space,3,1,15.8299372413,4.79158172803,2017_May_26_0943,257.490651699,KRITL,004,31057,
,,,,,,,,"('ADD', 'TRIPLE', 'HALF', 'x', 'y')",triple,3,"(2, 6, 8)",8,8,2,4,half,ADD,0,BUUxy,,,,,0,13,13,5,,,,,,space,8,1,7.09039105149,5.17350778705,2017_May_26_0943,257.490651699,KRITL,004,31057,
,,,,,,,,"('INCREASE', 'HALF', 'THIRD', 'TIMES', 'x', 'y')",half,4,"(12, 4, 2, 3)",3,3,4,3,third,increase,TIMES,UUUBxy,,,,,0,14,14,16,,,,,,space,3,1,7.41057256982,8.44989922829,2017_May_26_0943,257.490651699,KRITL,004,31057,
,,,,,,,,"('HALF', 'INCREASE', 'TIMES', 'x', 'y')",increase,3,"(9, 10, 5)",5,5,3,3,TIMES,half,0,UUBxy,,,,,0,15,15,9,,,,,,space,5,1,3.62172054732,2.73639058019,2017_May_26_0943,257.490651699,KRITL,004,31057,
,,,,,,,,"('ADD', 'DECREASE', 'THIRD', 'DOUBLE', 'x', 'y')",decrease,4,"(18, 6, 5, 9)",9,9,4,9,third,ADD,double,BUUUxy,,,,,0,16,16,10,,,,,,space,9,1,12.4997093563,16.5651638473,2017_May_26_0943,257.490651699,KRITL,004,31057,
,,,,,,,,"('DIVIDE', 'DECREASE', 'x', 'y')",decrease,2,"(8, 2)",2,2,4,9,0,DIVIDE,0,BUxy,,,,,0,17,17,1,,,,,,space,2,1,3.49226320931,1.76105976966,2017_May_26_0943,257.490651699,KRITL,004,31057,
,,,,,,,,"('HALF', 'SUBTRACT', 'DECREASE', 'TRIPLE', 'x', 'y')",SUBTRACT,4,"(15, 14, 10, 5)",5,5,4,5,decrease,half,triple,UBUUxy,,,,,0,0,0,12,,,,,,space,None,0,19.1134577636,,2017_May_26_0943,257.490651699,KRITL,004,31057,
,,,,,,,,"('INCREASE', 'DIVIDE', 'TRIPLE', 'x', 'y')",DIVIDE,3,"(6, 2, 3)",3,3,3,2,triple,increase,0,UBUxy,,,,,0,1,1,7,,,,,,space,3,1,4.75989544531,3.23718097014,2017_May_26_0943,257.490651699,KRITL,004,31057,
,,,,,,,,"('DIVIDE', 'DOUBLE', 'INCREASE', 'TRIPLE', 'x', 'y')",double,4,"(9, 10, 20, 5)",5,5,4,3,increase,DIVIDE,triple,BUUUxy,,,,,0,2,2,10,,,,,,space,5,1,16.5972763838,16.996466781,2017_May_26_0943,257.490651699,KRITL,004,31057,
,,,,,,,,"('INCREASE', 'TIMES', 'TRIPLE', 'HALF', 'x', 'y')",TIMES,4,"(1, 3, 6, 7)",7,7,2,2,triple,increase,half,UBUUxy,,,,,0,3,3,13,,,,,,space,5,0,16.3237479839,15.699377872,2017_May_26_0943,257.490651699,KRITL,004,31057,
,,,,,,,,"('DECREASE', 'THIRD', 'DOUBLE', 'ADD', 'x', 'y')",third,4,"(9, 18, 6, 5)",5,5,4,5,double,decrease,ADD,UUUBxy,,,,,0,4,4,16,,,,,,space,5,1,14.3209797824,4.91940194252,2017_May_26_0943,257.490651699,KRITL,004,31057,
,,,,,,,,"('SUBTRACT', 'TRIPLE', 'x', 'y')",triple,2,"(12, 9)",9,9,3,4,0,SUBTRACT,0,BUxy,,,,,0,5,5,1,,,,,,space,9,1,4.29212679411,2.46837303601,2017_May_26_0943,257.490651699,KRITL,004,31057,
,,,,,,,,"('SUBTRACT', 'INCREASE', 'HALF', 'x', 'y')",increase,3,"(4, 5, 3)",3,3,2,8,half,SUBTRACT,0,BUUxy,,,,,0,6,6,5,,,,,,space,3,1,14.0083126533,3.71250355639,2017_May_26_0943,257.490651699,KRITL,004,31057,
,,,,,,,,"('TRIPLE', 'INCREASE', 'SUBTRACT', 'x', 'y')",increase,3,"(1, 2, 6)",6,6,2,3,SUBTRACT,triple,0,UUBxy,,,,,0,7,7,9,,,,,,space,6,1,3.68470430467,2.08678224054,2017_May_26_0943,257.490651699,KRITL,004,31057,
,,,,,,,,"('HALF', 'TIMES', 'DECREASE', 'x', 'y')",TIMES,3,"(8, 16, 8)",8,8,2,9,decrease,half,0,UBUxy,,,,,0,8,8,6,,,,,,space,8,1,3.79867336294,11.6216901008,2017_May_26_0943,257.490651699,KRITL,004,31057,
,,,,,,,,"('THIRD', 'INCREASE', 'HALF', 'TIMES', 'x', 'y')",increase,4,"(28, 14, 15, 5)",5,5,4,7,half,third,TIMES,UUUBxy,,,,,0,9,9,17,,,,,,space,5,1,10.8393869223,9.23504130077,2017_May_26_0943,257.490651699,KRITL,004,31057,
,,,,,,,,"('TRIPLE', 'INCREASE', 'DIVIDE', 'DOUBLE', 'x', 'y')",increase,4,"(16, 2, 3, 9)",9,9,8,8,DIVIDE,triple,double,UUBUxy,,,,,0,10,10,15,,,,,,space,3,0,14.9040102523,16.7717161204,2017_May_26_0943,257.490651699,KRITL,004,31057,
,,,,,,,,"('INCREASE', 'DIVIDE', 'x', 'y')",DIVIDE,2,"(4, 5)",5,5,2,8,0,increase,0,UBxy,,,,,0,11,11,3,,,,,,space,5,1,2.99506728188,1.92733908654,2017_May_26_0943,257.490651699,KRITL,004,31057,
,,,,,,,,"('ADD', 'HALF', 'x', 'y')",half,2,"(2, 7)",7,7,5,4,0,ADD,0,BUxy,,,,,0,12,12,0,,,,,,space,7,1,2.29499998433,1.43041088013,2017_May_26_0943,257.490651699,KRITL,004,31057,
,,,,,,,,"('TRIPLE', 'HALF', 'ADD', 'x', 'y')",half,3,"(6, 3, 9)",9,9,3,3,ADD,triple,0,UUBxy,,,,,0,13,13,8,,,,,,space,6,0,6.80224157847,4.08648547251,2017_May_26_0943,257.490651699,KRITL,004,31057,
,,,,,,,,"('TIMES', 'HALF', 'INCREASE', 'THIRD', 'x', 'y')",half,4,"(1, 2, 1, 9)",9,9,9,3,increase,TIMES,third,BUUUxy,,,,,0,14,14,11,,,,,,space,9,1,7.04459849,4.56226685946,2017_May_26_0943,257.490651699,KRITL,004,31057,
,,,,,,,,"('DOUBLE', 'DIVIDE', 'x', 'y')",DIVIDE,2,"(1, 2)",2,2,8,8,0,double,0,UBxy,,,,,0,15,15,2,,,,,,space,2,1,3.1410036427,1.60365829547,2017_May_26_0943,257.490651699,KRITL,004,31057,
,,,,,,,,"('TRIPLE', 'DOUBLE', 'SUBTRACT', 'INCREASE', 'x', 'y')",double,4,"(5, 1, 2, 6)",6,6,4,4,SUBTRACT,triple,increase,UUBUxy,,,,,0,16,16,14,,,,,,space,6,1,13.6209737281,2.66235291539,2017_May_26_0943,257.490651699,KRITL,004,31057,
,,,,,,,,"('DIVIDE', 'TRIPLE', 'DECREASE', 'x', 'y')",triple,3,"(6, 18, 9)",9,9,2,7,decrease,DIVIDE,0,BUUxy,,,,,0,17,17,4,,,,,,space,9,1,18.9141045639,2.50013945997,2017_May_26_0943,257.490651699,KRITL,004,31057,
,,,,,,,,"('DIVIDE', 'TRIPLE', 'HALF', 'x', 'y')",triple,3,"(4, 12, 4)",4,4,3,8,half,DIVIDE,0,BUUxy,,,,,0,0,0,4,,,,,,space,9,0,10.4648328177,16.4203099196,2017_May_26_0943,257.490651699,KRITL,004,31057,
,,,,,,,,"('DIVIDE', 'DOUBLE', 'INCREASE', 'THIRD', 'x', 'y')",double,4,"(2, 3, 6, 2)",2,2,3,6,increase,DIVIDE,third,BUUUxy,,,,,0,1,1,10,,,,,,None,None,0,,,2017_May_26_0943,257.490651699,KRITL,004,31057,
,,,,,,,,"('DECREASE', 'TRIPLE', 'HALF', 'ADD', 'x', 'y')",triple,4,"(6, 3, 9, 8)",8,8,2,4,half,decrease,ADD,UUUBxy,,,,,0,2,2,16,,,,,,space,8,1,9.38553871959,11.2709162817,2017_May_26_0943,257.490651699,KRITL,004,31057,
,,,,,,,,"('SUBTRACT', 'INCREASE', 'x', 'y')",increase,2,"(6, 2)",2,2,4,5,0,SUBTRACT,0,BUxy,,,,,0,3,3,1,,,,,,space,2,1,4.33881140919,1.63327280153,2017_May_26_0943,257.490651699,KRITL,004,31057,
,,,,,,,,"('INCREASE', 'ADD', 'TRIPLE', 'x', 'y')",ADD,3,"(6, 8, 9)",9,9,2,2,triple,increase,0,UBUxy,,,,,0,4,4,6,,,,,,space,9,1,4.58242013585,4.03563280683,2017_May_26_0943,257.490651699,KRITL,004,31057,
,,,,,,,,"('THIRD', 'TIMES', 'HALF', 'INCREASE', 'x', 'y')",TIMES,4,"(8, 4, 12, 4)",4,4,3,7,half,third,increase,UBUUxy,,,,,0,5,5,13,,,,,,space,4,1,10.2612800708,5.7004043113,2017_May_26_0943,257.490651699,KRITL,004,31057,
,,,,,,,,"('TRIPLE', 'DOUBLE', 'SUBTRACT', 'DECREASE', 'x', 'y')",double,4,"(4, 1, 2, 6)",6,6,3,5,SUBTRACT,triple,decrease,UUBUxy,,,,,0,6,6,15,,,,,,space,6,1,9.11067031417,2.77225646214,2017_May_26_0943,257.490651699,KRITL,004,31057,
,,,,,,,,"('TRIPLE', 'DECREASE', 'HALF', 'SUBTRACT', 'x', 'y')",decrease,4,"(4, 2, 1, 3)",3,3,5,9,half,triple,SUBTRACT,UUUBxy,,,,,0,7,7,17,,,,,,space,3,1,11.2702943985,7.79761122749,2017_May_26_0943,257.490651699,KRITL,004,31057,
,,,,,,,,"('ADD', 'THIRD', 'x', 'y')",third,2,"(1, 7)",7,7,6,3,0,ADD,0,BUxy,,,,,0,8,8,0,,,,,,space,7,1,2.67456799792,1.446991042,2017_May_26_0943,257.490651699,KRITL,004,31057,
,,,,,,,,"('DOUBLE', 'ADD', 'x', 'y')",ADD,2,"(4, 8)",8,8,2,2,0,double,0,UBxy,,,,,0,9,9,2,,,,,,space,8,1,1.63713568496,2.58256817004,2017_May_26_0943,257.490651699,KRITL,004,31057,
,,,,,,,,"('DOUBLE', 'TIMES', 'x', 'y')",TIMES,2,"(4, 8)",8,8,2,2,0,double,0,UBxy,,,,,0,10,10,3,,,,,,space,8,1,2.96531139128,2.86940668453,2017_May_26_0943,257.490651699,KRITL,004,31057,
,,,,,,,,"('INCREASE', 'DIVIDE', 'TRIPLE', 'HALF', 'x', 'y')",DIVIDE,4,"(2, 6, 2, 3)",3,3,3,4,triple,increase,half,UBUUxy,,,,,0,11,11,12,,,,,,space,3,1,18.2910244132,6.21417375142,2017_May_26_0943,257.490651699,KRITL,004,31057,
,,,,,,,,"('TIMES', 'INCREASE', 'HALF', 'TRIPLE', 'x', 'y')",increase,4,"(6, 3, 4, 8)",8,8,2,2,half,TIMES,triple,BUUUxy,,,,,0,12,12,11,,,,,,None,None,0,,,2017_May_26_0943,257.490651699,KRITL,004,31057,
,,,,,,,,"('TIMES', 'THIRD', 'DOUBLE', 'x', 'y')",third,3,"(6, 2, 4)",4,4,2,3,double,TIMES,0,BUUxy,,,,,0,13,13,5,,,,,,space,4,1,7.5347496774,4.37398541579,2017_May_26_0943,257.490651699,KRITL,004,31057,
,,,,,,,,"('DECREASE', 'TRIPLE', 'DIVIDE', 'x', 'y')",triple,3,"(2, 6, 5)",5,5,4,8,DIVIDE,decrease,0,UUBxy,,,,,0,14,14,8,,,,,,space,5,1,3.12538062781,7.79851098056,2017_May_26_0943,257.490651699,KRITL,004,31057,
,,,,,,,,"('THIRD', 'INCREASE', 'ADD', 'DOUBLE', 'x', 'y')",increase,4,"(16, 20, 21, 7)",7,7,4,8,ADD,third,double,UUBUxy,,,,,0,15,15,14,,,,,,space,7,1,11.7981718672,5.05890459707,2017_May_26_0943,257.490651699,KRITL,004,31057,
,,,,,,,,"('THIRD', 'INCREASE', 'SUBTRACT', 'x', 'y')",increase,3,"(2, 3, 1)",1,1,6,8,SUBTRACT,third,0,UUBxy,,,,,0,16,16,9,,,,,,space,1,1,8.33807963808,2.23016212718,2017_May_26_0943,257.490651699,KRITL,004,31057,
,,,,,,,,"('INCREASE', 'SUBTRACT', 'THIRD', 'x', 'y')",SUBTRACT,3,"(3, 1, 2)",2,2,2,9,third,increase,0,UBUxy,,,,,0,17,17,7,,,,,,space,2,1,3.17419056362,6.85659386637,2017_May_26_0943,257.490651699,KRITL,004,31057,
,,,,,,,,"('INCREASE', 'TRIPLE', 'DIVIDE', 'x', 'y')",triple,3,"(2, 6, 7)",7,7,3,6,DIVIDE,increase,0,UUBxy,,,,,0,0,0,8,,,,,,space,7,1,5.1533555605,4.91409511468,2017_May_26_0943,257.490651699,KRITL,004,31057,
,,,,,,,,"('THIRD', 'DOUBLE', 'ADD', 'DECREASE', 'x', 'y')",double,4,"(5, 12, 24, 8)",8,8,7,6,ADD,third,decrease,UUBUxy,,,,,0,1,1,14,,,,,,space,8,1,15.142068228,5.04253406287,2017_May_26_0943,257.490651699,KRITL,004,31057,
,,,,,,,,"('ADD', 'DOUBLE', 'DECREASE', 'THIRD', 'x', 'y')",double,4,"(2, 1, 2, 8)",8,8,6,6,decrease,ADD,third,BUUUxy,,,,,0,2,2,10,,,,,,space,8,1,17.9728124822,6.08595387987,2017_May_26_0943,257.490651699,KRITL,004,31057,
,,,,,,,,"('DIVIDE', 'DECREASE', 'TRIPLE', 'x', 'y')",decrease,3,"(9, 8, 4)",4,4,2,3,triple,DIVIDE,0,BUUxy,,,,,0,3,3,5,,,,,,space,4,1,13.2543693662,2.49979929649,2017_May_26_0943,257.490651699,KRITL,004,31057,
,,,,,,,,"('THIRD', 'TIMES', 'DOUBLE', 'DECREASE', 'x', 'y')",TIMES,4,"(1, 2, 6, 2)",2,2,3,2,double,third,decrease,UBUUxy,,,,,0,4,4,13,,,,,,space,2,1,9.71708841179,8.82253938913,2017_May_26_0943,257.490651699,KRITL,004,31057,
,,,,,,,,"('ADD', 'HALF', 'THIRD', 'x', 'y')",half,3,"(2, 1, 9)",9,9,8,6,third,ADD,0,BUUxy,,,,,0,5,5,4,,,,,,space,9,1,7.90699508041,3.50937601388,2017_May_26_0943,257.490651699,KRITL,004,31057,
,,,,,,,,"('SUBTRACT', 'DECREASE', 'TRIPLE', 'DOUBLE', 'x', 'y')",decrease,4,"(6, 18, 17, 8)",8,8,9,3,triple,SUBTRACT,double,BUUUxy,,,,,0,6,6,11,,,,,,space,8,1,5.25387276988,11.5575563677,2017_May_26_0943,257.490651699,KRITL,004,31057,
,,,,,,,,"('HALF', 'TRIPLE', 'INCREASE', 'DIVIDE', 'x', 'y')",triple,4,"(3, 4, 12, 6)",6,6,3,9,increase,half,DIVIDE,UUUBxy,,,,,0,7,7,16,,,,,,None,None,0,,,2017_May_26_0943,257.490651699,KRITL,004,31057,
,,,,,,,,"('INCREASE', 'ADD', 'x', 'y')",ADD,2,"(5, 6)",6,6,2,3,0,increase,0,UBxy,,,,,0,8,8,3,,,,,,space,6,1,4.78138872725,1.27107236488,2017_May_26_0943,257.490651699,KRITL,004,31057,
,,,,,,,,"('DECREASE', 'DIVIDE', 'x', 'y')",DIVIDE,2,"(2, 1)",1,1,4,8,0,decrease,0,UBxy,,,,,0,9,9,2,,,,,,space,1,1,3.2998081157,3.38519925624,2017_May_26_0943,257.490651699,KRITL,004,31057,
,,,,,,,,"('INCREASE', 'SUBTRACT', 'HALF', 'x', 'y')",SUBTRACT,3,"(4, 2, 3)",3,3,2,8,half,increase,0,UBUxy,,,,,0,10,10,7,,,,,,space,3,1,16.0969115482,5.33434309112,2017_May_26_0943,257.490651699,KRITL,004,31057,
,,,,,,,,"('THIRD', 'INCREASE', 'DIVIDE', 'DOUBLE', 'x', 'y')",increase,4,"(18, 2, 3, 1)",1,1,9,9,DIVIDE,third,double,UUBUxy,,,,,0,11,11,15,,,,,,space,1,1,10.712054905,5.47877916368,2017_May_26_0943,257.490651699,KRITL,004,31057,
,,,,,,,,"('THIRD', 'HALF', 'ADD', 'x', 'y')",half,3,"(6, 3, 1)",1,1,3,3,ADD,third,0,UUBxy,,,,,0,12,12,9,,,,,,None,None,0,,,2017_May_26_0943,257.490651699,KRITL,004,31057,
,,,,,,,,"('HALF', 'ADD', 'TRIPLE', 'x', 'y')",ADD,3,"(9, 12, 6)",6,6,3,3,triple,half,0,UBUxy,,,,,0,13,13,6,,,,,,space,6,1,4.47487463499,3.2400114648,2017_May_26_0943,257.490651699,KRITL,004,31057,
,,,,,,,,"('THIRD', 'DOUBLE', 'INCREASE', 'TIMES', 'x', 'y')",double,4,"(8, 9, 18, 6)",6,6,4,2,increase,third,TIMES,UUUBxy,,,,,0,14,14,17,,,,,,None,None,0,,,2017_May_26_0943,257.490651699,KRITL,004,31057,
,,,,,,,,"('DOUBLE', 'ADD', 'INCREASE', 'THIRD', 'x', 'y')",ADD,4,"(1, 2, 4, 8)",8,8,2,3,increase,double,third,UBUUxy,,,,,0,15,15,12,,,,,,space,8,1,9.70052329847,5.23970769742,2017_May_26_0943,257.490651699,KRITL,004,31057,
,,,,,,,,"('SUBTRACT', 'DECREASE', 'x', 'y')",decrease,2,"(5, 3)",3,3,2,6,0,SUBTRACT,0,BUxy,,,,,0,16,16,1,,,,,,space,3,1,5.58692799974,1.84631617484,2017_May_26_0943,257.490651699,KRITL,004,31057,
,,,,,,,,"('DIVIDE', 'INCREASE', 'x', 'y')",increase,2,"(4, 2)",2,2,2,3,0,DIVIDE,0,BUxy,,,,,0,17,17,0,,,,,,space,2,1,2.11797647644,1.8131254043,2017_May_26_0943,257.490651699,KRITL,004,31057,
,,,,,,,,"('DECREASE', 'TRIPLE', 'DIVIDE', 'DOUBLE', 'x', 'y')",triple,4,"(6, 2, 6, 5)",5,5,3,3,DIVIDE,decrease,double,UUBUxy,,,,,0,0,0,14,,,,,,None,None,0,,,2017_May_26_0943,257.490651699,KRITL,004,31057,
,,,,,,,,"('INCREASE', 'ADD', 'HALF', 'TRIPLE', 'x', 'y')",ADD,4,"(6, 3, 6, 7)",7,7,3,2,half,increase,triple,UBUUxy,,,,,0,1,1,13,,,,,,space,2,0,11.8994120983,9.1408552588,2017_May_26_0943,257.490651699,KRITL,004,31057,
,,,,,,,,"('SUBTRACT', 'DOUBLE', 'TRIPLE', 'DECREASE', 'x', 'y')",double,4,"(2, 6, 12, 8)",8,8,4,3,triple,SUBTRACT,decrease,BUUUxy,,,,,0,2,2,10,,,,,,space,8,1,12.4327913234,4.93181300396,2017_May_26_0943,257.490651699,KRITL,004,31057,
,,,,,,,,"('DOUBLE', 'THIRD', 'TIMES', 'x', 'y')",third,3,"(12, 4, 8)",8,8,6,2,TIMES,double,0,UUBxy,,,,,0,3,3,9,,,,,,space,8,1,4.70700005,6.94748291397,2017_May_26_0943,257.490651699,KRITL,004,31057,
,,,,,,,,"('TIMES', 'HALF', 'INCREASE', 'x', 'y')",half,3,"(6, 3, 9)",9,9,3,5,increase,TIMES,0,BUUxy,,,,,0,4,4,5,,,,,,space,9,1,12.0860158233,2.32477792259,2017_May_26_0943,257.490651699,KRITL,004,31057,
,,,,,,,,"('DOUBLE', 'DECREASE', 'ADD', 'x', 'y')",decrease,3,"(4, 3, 6)",6,6,2,2,ADD,double,0,UUBxy,,,,,0,5,5,8,,,,,,space,6,1,6.99145497149,2.30883784196,2017_May_26_0943,257.490651699,KRITL,004,31057,
,,,,,,,,"('THIRD', 'TIMES', 'HALF', 'x', 'y')",TIMES,3,"(3, 18, 6)",6,6,6,6,half,third,0,UBUxy,,,,,0,6,6,7,,,,,,space,6,1,4.74232209055,4.02222715272,2017_May_26_0943,257.490651699,KRITL,004,31057,
,,,,,,,,"('DIVIDE', 'THIRD', 'x', 'y')",third,2,"(3, 1)",1,1,3,9,0,DIVIDE,0,BUxy,,,,,0,7,7,0,,,,,,space,1,1,4.08416137309,2.47071148362,2017_May_26_0943,257.490651699,KRITL,004,31057,
,,,,,,,,"('THIRD', 'DECREASE', 'TIMES', 'HALF', 'x', 'y')",decrease,4,"(4, 16, 15, 5)",5,5,4,8,TIMES,third,half,UUBUxy,,,,,0,8,8,15,,,,,,space,5,1,13.7832893722,7.71886832011,2017_May_26_0943,257.490651699,KRITL,004,31057,
,,,,,,,,"('HALF', 'TRIPLE', 'INCREASE', 'SUBTRACT', 'x', 'y')",triple,4,"(1, 2, 6, 3)",3,3,2,3,increase,half,SUBTRACT,UUUBxy,,,,,0,9,9,17,,,,,,space,1,0,9.73233136814,11.857710246,2017_May_26_0943,257.490651699,KRITL,004,31057,
,,,,,,,,"('INCREASE', 'SUBTRACT', 'x', 'y')",SUBTRACT,2,"(3, 4)",4,4,3,6,0,increase,0,UBxy,,,,,0,10,10,2,,,,,,space,4,1,12.244264906,1.86188179604,2017_May_26_0943,257.490651699,KRITL,004,31057,
,,,,,,,,"('THIRD', 'DIVIDE', 'DECREASE', 'x', 'y')",DIVIDE,3,"(6, 3, 1)",1,1,2,7,decrease,third,0,UBUxy,,,,,0,11,11,6,,,,,,space,1,1,6.03522825055,3.5393471315,2017_May_26_0943,257.490651699,KRITL,004,31057,
,,,,,,,,"('SUBTRACT', 'TRIPLE', 'DECREASE', 'x', 'y')",triple,3,"(4, 12, 3)",3,3,9,5,decrease,SUBTRACT,0,BUUxy,,,,,0,12,12,4,,,,,,space,3,1,5.49404346733,4.04054977652,2017_May_26_0943,257.490651699,KRITL,004,31057,
,,,,,,,,"('DECREASE', 'TRIPLE', 'HALF', 'SUBTRACT', 'x', 'y')",triple,4,"(4, 2, 6, 5)",5,5,2,6,half,decrease,SUBTRACT,UUUBxy,,,,,0,13,13,16,,,,,,None,None,0,,,2017_May_26_0943,257.490651699,KRITL,004,31057,
,,,,,,,,"('DOUBLE', 'DIVIDE', 'TRIPLE', 'INCREASE', 'x', 'y')",DIVIDE,4,"(5, 15, 3, 6)",6,6,5,4,triple,double,increase,UBUUxy,,,,,0,14,14,12,,,,,,space,6,1,13.723726846,7.03042011918,2017_May_26_0943,257.490651699,KRITL,004,31057,
,,,,,,,,"('SUBTRACT', 'TRIPLE', 'DECREASE', 'DOUBLE', 'x', 'y')",triple,4,"(4, 3, 9, 1)",1,1,8,2,decrease,SUBTRACT,double,BUUUxy,,,,,0,15,15,11,,,,,,space,1,1,15.7785256861,5.64958069264,2017_May_26_0943,257.490651699,KRITL,004,31057,
,,,,,,,,"('THIRD', 'DIVIDE', 'x', 'y')",DIVIDE,2,"(3, 1)",1,1,2,6,0,third,0,UBxy,,,,,0,16,16,3,,,,,,space,1,1,1.74871345144,1.54188575759,2017_May_26_0943,257.490651699,KRITL,004,31057,
,,,,,,,,"('TIMES', 'DOUBLE', 'x', 'y')",double,2,"(4, 8)",8,8,2,2,0,TIMES,0,BUxy,,,,,0,17,17,1,,,,,,space,8,1,2.35750604304,1.59366092365,2017_May_26_0943,257.490651699,KRITL,004,31057,
,,,,,,,,"('DOUBLE', 'TIMES', 'THIRD', 'x', 'y')",TIMES,3,"(1, 4, 8)",8,8,4,3,third,double,0,UBUxy,,,,,0,0,0,6,,,,,,space,8,1,12.3881224908,4.87073269137,2017_May_26_0943,257.490651699,KRITL,004,31057,
,,,,,,,,"('TRIPLE', 'HALF', 'TIMES', 'x', 'y')",half,3,"(6, 3, 9)",9,9,3,2,TIMES,triple,0,UUBxy,,,,,0,1,1,9,,,,,,space,9,1,7.92104746518,4.94895205554,2017_May_26_0943,257.490651699,KRITL,004,31057,
,,,,,,,,"('TRIPLE', 'SUBTRACT', 'INCREASE', 'HALF', 'x', 'y')",SUBTRACT,4,"(3, 4, 1, 3)",3,3,3,6,increase,triple,half,UBUUxy,,,,,0,2,2,13,,,,,,space,3,1,14.0984457827,7.26858553314,2017_May_26_0943,257.490651699,KRITL,004,31057,
,,,,,,,,"('INCREASE', 'TIMES', 'x', 'y')",TIMES,2,"(8, 9)",9,9,4,2,0,increase,0,UBxy,,,,,0,3,3,2,,,,,,space,9,1,3.15604467038,1.82814263483,2017_May_26_0943,257.490651699,KRITL,004,31057,
,,,,,,,,"('THIRD', 'INCREASE', 'SUBTRACT', 'HALF', 'x', 'y')",increase,4,"(4, 2, 3, 1)",1,1,2,8,SUBTRACT,third,half,UUBUxy,,,,,0,4,4,15,,,,,,None,None,0,,,2017_May_26_0943,257.490651699,KRITL,004,31057,
,,,,,,,,"('INCREASE', 'HALF', 'TIMES', 'TRIPLE', 'x', 'y')",half,4,"(6, 12, 6, 7)",7,7,2,2,TIMES,increase,triple,UUBUxy,,,,,0,5,5,14,,,,,,space,7,1,15.7874497236,4.08727463754,2017_May_26_0943,257.490651699,KRITL,004,31057,
,,,,,,,,"('DECREASE', 'HALF', 'TRIPLE', 'ADD', 'x', 'y')",half,4,"(4, 12, 6, 5)",5,5,2,2,triple,decrease,ADD,UUUBxy,,,,,0,6,6,16,,,,,,space,5,1,14.9523844852,3.886480293,2017_May_26_0943,257.490651699,KRITL,004,31057,
,,,,,,,,"('SUBTRACT', 'DOUBLE', 'DECREASE', 'x', 'y')",double,3,"(8, 16, 7)",7,7,9,9,decrease,SUBTRACT,0,BUUxy,,,,,0,7,7,5,,,,,,space,7,1,3.55644768709,4.82068563905,2017_May_26_0943,257.490651699,KRITL,004,31057,
,,,,,,,,"('TRIPLE', 'SUBTRACT', 'x', 'y')",SUBTRACT,2,"(2, 6)",6,6,6,8,0,triple,0,UBxy,,,,,0,8,8,3,,,,,,space,6,1,2.03415211663,1.36234322144,2017_May_26_0943,257.490651699,KRITL,004,31057,
,,,,,,,,"('DECREASE', 'DIVIDE', 'TRIPLE', 'DOUBLE', 'x', 'y')",DIVIDE,4,"(6, 18, 2, 1)",1,1,9,3,triple,decrease,double,UBUUxy,,,,,0,9,9,12,,,,,,space,8,0,4.7408368506,9.35388393351,2017_May_26_0943,257.490651699,KRITL,004,31057,
,,,,,,,,"('TIMES', 'DECREASE', 'THIRD', 'DOUBLE', 'x', 'y')",decrease,4,"(6, 2, 1, 2)",2,2,2,3,third,TIMES,double,BUUUxy,,,,,0,10,10,11,,,,,,None,None,0,,,2017_May_26_0943,257.490651699,KRITL,004,31057,
,,,,,,,,"('DIVIDE', 'DECREASE', 'THIRD', 'DOUBLE', 'x', 'y')",decrease,4,"(12, 4, 3, 1)",1,1,3,6,third,DIVIDE,double,BUUUxy,,,,,0,11,11,10,,,,,,space,1,1,15.5433965449,12.767749998,2017_May_26_0943,257.490651699,KRITL,004,31057,
,,,,,,,,"('DECREASE', 'HALF', 'DIVIDE', 'x', 'y')",half,3,"(4, 2, 1)",1,1,2,8,DIVIDE,decrease,0,UUBxy,,,,,0,12,12,8,,,,,,space,1,1,5.82849434693,4.54941729526,2017_May_26_0943,257.490651699,KRITL,004,31057,
,,,,,,,,"('TIMES', 'THIRD', 'x', 'y')",third,2,"(1, 4)",4,4,4,3,0,TIMES,0,BUxy,,,,,0,13,13,1,,,,,,space,4,1,1.81501415069,3.19040081534,2017_May_26_0943,257.490651699,KRITL,004,31057,
,,,,,,,,"('INCREASE', 'DIVIDE', 'HALF', 'x', 'y')",DIVIDE,3,"(2, 1, 2)",2,2,2,4,half,increase,0,UBUxy,,,,,0,14,14,7,,,,,,None,None,0,,,2017_May_26_0943,257.490651699,KRITL,004,31057,
,,,,,,,,"('INCREASE', 'TRIPLE', 'HALF', 'ADD', 'x', 'y')",triple,4,"(4, 2, 6, 7)",7,7,2,2,half,increase,ADD,UUUBxy,,,,,0,15,15,17,,,,,,None,None,0,,,2017_May_26_0943,257.490651699,KRITL,004,31057,
,,,,,,,,"('ADD', 'DECREASE', 'HALF', 'x', 'y')",decrease,3,"(3, 2, 6)",6,6,4,6,half,ADD,0,BUUxy,,,,,0,16,16,4,,,,,,space,6,1,4.82431474747,2.75500752265,2017_May_26_0943,257.490651699,KRITL,004,31057,
,,,,,,,,"('SUBTRACT', 'THIRD', 'x', 'y')",third,2,"(3, 1)",1,1,2,9,0,SUBTRACT,0,BUxy,,,,,0,17,17,0,,,,,,space,1,1,1.68589277659,1.60299371718,2017_May_26_0943,257.490651699,KRITL,004,31057,
,,,,,,,,"('THIRD', 'DECREASE', 'TIMES', 'x', 'y')",decrease,3,"(25, 24, 8)",8,8,5,5,TIMES,third,0,UUBxy,,,,,0,0,0,8,,,,,,space,8,1,8.01486324705,2.43588184007,2017_May_26_0943,257.490651699,KRITL,004,31057,
,,,,,,,,"('THIRD', 'INCREASE', 'HALF', 'DIVIDE', 'x', 'y')",increase,4,"(4, 2, 3, 1)",1,1,2,8,half,third,DIVIDE,UUUBxy,,,,,0,1,1,16,,,,,,space,9,0,12.7109119282,6.67477902514,2017_May_26_0943,257.490651699,KRITL,004,31057,
,,,,,,,,"('TIMES', 'DECREASE', 'HALF', 'x', 'y')",decrease,3,"(4, 3, 9)",9,9,3,8,half,TIMES,0,BUUxy,,,,,0,2,2,4,,,,,,space,9,1,3.90345521225,3.4114264776,2017_May_26_0943,257.490651699,KRITL,004,31057,
,,,,,,,,"('TRIPLE', 'SUBTRACT', 'DOUBLE', 'DECREASE', 'x', 'y')",SUBTRACT,4,"(2, 4, 1, 3)",3,3,3,3,double,triple,decrease,UBUUxy,,,,,0,3,3,13,,,,,,space,3,1,12.6021342098,6.55147682317,2017_May_26_0943,257.490651699,KRITL,004,31057,
,,,,,,,,"('THIRD', 'SUBTRACT', 'x', 'y')",SUBTRACT,2,"(3, 1)",1,1,2,5,0,third,0,UBxy,,,,,0,4,4,3,,,,,,space,1,1,4.38562201057,1.47784896404,2017_May_26_0943,257.490651699,KRITL,004,31057,
,,,,,,,,"('TRIPLE', 'HALF', 'ADD', 'DECREASE', 'x', 'y')",half,4,"(1, 4, 2, 6)",6,6,3,2,ADD,triple,decrease,UUBUxy,,,,,0,5,5,15,,,,,,space,6,1,7.23782700044,8.86506365286,2017_May_26_0943,257.490651699,KRITL,004,31057,
,,,,,,,,"('TIMES', 'THIRD', 'HALF', 'x', 'y')",third,3,"(3, 1, 5)",5,5,5,6,half,TIMES,0,BUUxy,,,,,0,6,6,5,,,,,,space,5,1,4.85347885243,1.25263495347,2017_May_26_0943,257.490651699,KRITL,004,31057,
,,,,,,,,"('THIRD', 'TIMES', 'DECREASE', 'x', 'y')",TIMES,3,"(3, 15, 5)",5,5,5,4,decrease,third,0,UBUxy,,,,,0,7,7,7,,,,,,space,5,1,5.07440232555,2.55649913149,2017_May_26_0943,257.490651699,KRITL,004,31057,
,,,,,,,,"('INCREASE', 'DIVIDE', 'TRIPLE', 'DOUBLE', 'x', 'y')",DIVIDE,4,"(6, 18, 3, 4)",4,4,6,3,triple,increase,double,UBUUxy,,,,,0,8,8,12,,,,,,space,4,1,7.22974427207,4.53359165206,2017_May_26_0943,257.490651699,KRITL,004,31057,
,,,,,,,,"('THIRD', 'DOUBLE', 'ADD', 'INCREASE', 'x', 'y')",double,4,"(10, 12, 24, 8)",8,8,2,9,ADD,third,increase,UUBUxy,,,,,0,9,9,14,,,,,,space,8,1,6.70945888478,6.92005987139,2017_May_26_0943,257.490651699,KRITL,004,31057,
,,,,,,,,"('THIRD', 'ADD', 'INCREASE', 'x', 'y')",ADD,3,"(8, 15, 5)",5,5,7,7,increase,third,0,UBUxy,,,,,0,10,10,6,,,,,,space,5,1,3.07472184114,4.69327383046,2017_May_26_0943,257.490651699,KRITL,004,31057,
,,,,,,,,"('THIRD', 'ADD', 'x', 'y')",ADD,2,"(9, 3)",3,3,5,4,0,third,0,UBxy,,,,,0,11,11,2,,,,,,space,3,1,1.89343054336,5.07603210001,2017_May_26_0943,257.490651699,KRITL,004,31057,
,,,,,,,,"('TIMES', 'INCREASE', 'x', 'y')",increase,2,"(3, 6)",6,6,2,2,0,TIMES,0,BUxy,,,,,0,12,12,1,,,,,,space,6,1,4.66288485774,1.69895546767,2017_May_26_0943,257.490651699,KRITL,004,31057,
,,,,,,,,"('TRIPLE', 'HALF', 'DIVIDE', 'x', 'y')",half,3,"(2, 1, 3)",3,3,2,4,DIVIDE,triple,0,UUBxy,,,,,0,13,13,9,,,,,,space,3,1,6.26193450042,2.90760891442,2017_May_26_0943,257.490651699,KRITL,004,31057,
,,,,,,,,"('TIMES', 'INCREASE', 'THIRD', 'DOUBLE', 'x', 'y')",increase,4,"(6, 2, 3, 9)",9,9,3,3,third,TIMES,double,BUUUxy,,,,,0,14,14,11,,,,,,space,9,1,14.7695467044,3.81977748708,2017_May_26_0943,257.490651699,KRITL,004,31057,
,,,,,,,,"('TIMES', 'DECREASE', 'x', 'y')",decrease,2,"(2, 4)",4,4,2,3,0,TIMES,0,BUxy,,,,,0,15,15,0,,,,,,space,4,1,3.2032041843,1.41120635136,2017_May_26_0943,257.490651699,KRITL,004,31057,
,,,,,,,,"('SUBTRACT', 'HALF', 'INCREASE', 'TRIPLE', 'x', 'y')",half,4,"(15, 16, 8, 3)",3,3,5,5,increase,SUBTRACT,triple,BUUUxy,,,,,0,16,16,10,,,,,,space,3,1,7.86493066722,3.78065415635,2017_May_26_0943,257.490651699,KRITL,004,31057,
,,,,,,,,"('TRIPLE', 'DECREASE', 'HALF', 'TIMES', 'x', 'y')",decrease,4,"(6, 3, 2, 6)",6,6,2,3,half,triple,TIMES,UUUBxy,,,,,0,17,17,17,,,,,,space,8,0,15.5561890651,7.36462882487,2017_May_26_0943,257.490651699,KRITL,004,31057,
,,,,,,,,"('ADD', 'THIRD', 'INCREASE', 'HALF', 'x', 'y')",third,4,"(2, 3, 1, 7)",7,7,6,4,increase,ADD,half,BUUUxy,,,,,0,0,0,10,,,,,,space,7,1,12.7218003038,5.75980410515,2017_May_26_0943,257.490651699,KRITL,004,31057,
,,,,,,,,"('DECREASE', 'ADD', 'DOUBLE', 'THIRD', 'x', 'y')",ADD,4,"(3, 6, 10, 9)",9,9,4,9,double,decrease ,third,UBUUxy,,,,,0,1,1,12,,,,,,space,9,1,12.4372435433,10.1373528363,2017_May_26_0943,257.490651699,KRITL,004,31057,
,,,,,,,,"('DECREASE', 'TIMES', 'DOUBLE', 'THIRD', 'x', 'y')",TIMES,4,"(1, 2, 8, 7)",7,7,4,3,double,decrease,third,UBUUxy,,,,,0,2,2,13,,,,,,space,7,1,6.65376274171,3.54146370315,2017_May_26_0943,257.490651699,KRITL,004,31057,
,,,,,,,,"('HALF', 'TIMES', 'x', 'y')",TIMES,2,"(16, 8)",8,8,4,4,0,half,0,UBxy,,,,,0,3,3,3,,,,,,space,8,1,2.89985200111,2.62797402311,2017_May_26_0943,257.490651699,KRITL,004,31057,
,,,,,,,,"('DIVIDE', 'DOUBLE', 'x', 'y')",double,2,"(12, 2)",2,2,6,6,0,DIVIDE,0,BUxy,,,,,0,4,4,1,,,,,,space,2,1,2.14333474147,1.958590016,2017_May_26_0943,257.490651699,KRITL,004,31057,
,,,,,,,,"('DOUBLE', 'TRIPLE', 'SUBTRACT', 'x', 'y')",triple,3,"(1, 3, 6)",6,6,3,4,SUBTRACT,double,0,UUBxy,,,,,0,5,5,9,,,,,,space,6,1,6.46817425732,1.41459433595,2017_May_26_0943,257.490651699,KRITL,004,31057,
,,,,,,,,"('DECREASE', 'HALF', 'TRIPLE', 'DIVIDE', 'x', 'y')",half,4,"(4, 12, 6, 5)",5,5,2,8,triple,decrease,DIVIDE,UUUBxy,,,,,0,6,6,16,,,,,,space,5,1,11.5734443041,9.5733582133,2017_May_26_0943,257.490651699,KRITL,004,31057,
,,,,,,,,"('DOUBLE', 'TRIPLE', 'DIVIDE', 'DECREASE', 'x', 'y')",triple,4,"(8, 1, 3, 6)",6,6,8,9,DIVIDE,double,decrease,UUBUxy,,,,,0,7,7,15,,,,,,space,6,1,8.33655905211,2.11122990376,2017_May_26_0943,257.490651699,KRITL,004,31057,
,,,,,,,,"('ADD', 'DOUBLE', 'x', 'y')",double,2,"(4, 8)",8,8,4,2,0,ADD,0,BUxy,,,,,0,8,8,0,,,,,,space,8,1,1.54437328922,1.76515677781,2017_May_26_0943,257.490651699,KRITL,004,31057,
,,,,,,,,"('SUBTRACT', 'HALF', 'TRIPLE', 'x', 'y')",half,3,"(12, 6, 2)",2,2,4,4,triple,SUBTRACT,0,BUUxy,,,,,0,9,9,5,,,,,,space,2,1,4.24265437969,2.82324631303,2017_May_26_0943,257.490651699,KRITL,004,31057,
,,,,,,,,"('DIVIDE', 'INCREASE', 'DOUBLE', 'THIRD', 'x', 'y')",increase,4,"(2, 4, 5, 1)",1,1,5,6,double,DIVIDE,third,BUUUxy,,,,,0,10,10,11,,,,,,space,1,1,7.47242944851,9.15421436797,2017_May_26_0943,257.490651699,KRITL,004,31057,
,,,,,,,,"('DECREASE', 'THIRD', 'TIMES', 'HALF', 'x', 'y')",third,4,"(2, 12, 4, 3)",3,3,6,4,TIMES,decrease,half,UUBUxy,,,,,0,11,11,14,,,,,,space,3,1,11.1218533581,6.43797566439,2017_May_26_0943,257.490651699,KRITL,004,31057,
,,,,,,,,"('DOUBLE', 'DECREASE', 'SUBTRACT', 'x', 'y')",decrease,3,"(5, 4, 8)",8,8,2,7,SUBTRACT,double,0,UUBxy,,,,,0,12,12,8,,,,,,space,8,1,6.67813131353,2.38910378516,2017_May_26_0943,257.490651699,KRITL,004,31057,
,,,,,,,,"('DIVIDE', 'DOUBLE', 'THIRD', 'x', 'y')",double,3,"(2, 4, 1)",1,1,4,6,third,DIVIDE,0,BUUxy,,,,,0,13,13,4,,,,,,space,1,1,12.6896993159,2.69272578973,2017_May_26_0943,257.490651699,KRITL,004,31057,
,,,,,,,,"('DOUBLE', 'SUBTRACT', 'x', 'y')",SUBTRACT,2,"(1, 2)",2,2,7,8,0,double,0,UBxy,,,,,0,14,14,2,,,,,,space,2,1,4.08407353284,3.21984453965,2017_May_26_0943,257.490651699,KRITL,004,31057,
,,,,,,,,"('DOUBLE', 'DECREASE', 'TRIPLE', 'DIVIDE', 'x', 'y')",decrease,4,"(1, 3, 2, 4)",4,4,4,4,triple,double,DIVIDE,UUUBxy,,,,,0,15,15,17,,,,,,None,None,0,,,2017_May_26_0943,257.490651699,KRITL,004,31057,
,,,,,,,,"('HALF', 'SUBTRACT', 'TRIPLE', 'x', 'y')",SUBTRACT,3,"(9, 2, 1)",1,1,7,3,triple,half,0,UBUxy,,,,,0,16,16,6,,,,,,space,1,1,3.71104316413,4.65727006341,2017_May_26_0943,257.490651699,KRITL,004,31057,
,,,,,,,,"('INCREASE', 'DIVIDE', 'THIRD', 'x', 'y')",DIVIDE,3,"(3, 1, 2)",2,2,3,9,third,increase,0,UBUxy,,,,,0,17,17,7,,,,,,space,2,1,5.713750822,2.10775407869,2017_May_26_0943,257.490651699,KRITL,004,31057,
