operationc,operationb,operationa,correctresponse,valuey,operationd,condition,valuex,Rule,Operatora,Length,Intermediate,CorrectResponse,Result,Y,X,Operatorc,Operatorb,Operatord,Structure,practice_trials.thisRepN,practice_trials.thisTrialN,practice_trials.thisN,practice_trials.thisIndex,block.thisRepN,block.thisTrialN,block.thisN,block.thisIndex,practice_encoding.keys,practice_encoding.rt,practice_execution.keys,practice_execution.corr,practice_execution.rt,encoding.keys,encoding.rt,execution.keys,execution.corr,execution.rt,date,frameRate,expName,session,participant,
0,decrease,TIMES,8,3,0,2,3,,,,,,,,,,,,,0,0,0,1,,,,,['space'],[5.646423845668323],8,1,11.0260561811,,,,,,2017_Jun_02_0911,None,KRITL,001,31059,
increase,DIVIDE,triple,3,3,0,3,2,,,,,,,,,,,,,0,1,1,4,,,,,['space'],[13.119189512566663],3,1,6.31360577524,,,,,,2017_Jun_02_0911,None,KRITL,001,31059,
0,ADD,decrease,7,5,0,2,3,,,,,,,,,,,,,0,2,2,0,,,,,['space'],[2.6801862225402147],7,1,3.91201428138,,,,,,2017_Jun_02_0911,None,KRITL,001,31059,
increase,DIVIDE,double,9,8,triple,4,8,,,,,,,,,,,,,0,3,3,5,,,,,['space'],[6.1045627888524905],3,0,18.3583024112,,,,,,2017_Jun_02_0911,None,KRITL,001,31059,
0,ADD,half,7,5,0,2,4,,,,,,,,,,,,,0,4,4,2,,,,,['space'],[3.071832804242149],7,1,1.9732998861,,,,,,2017_Jun_02_0911,None,KRITL,001,31059,
ADD,triple ,half,8,2,0,3,4,,,,,,,,,,,,,0,5,5,3,,,,,['space'],[5.725058540236205],8,1,12.1964691484,,,,,,2017_Jun_02_0911,None,KRITL,001,31059,
,,,,,,,,"('TRIPLE', 'HALF', 'ADD', 'x', 'y')",half,3,"(6, 3, 9)",9,9,3,3,ADD,triple,0,UUBxy,,,,,0,0,0,8,,,,,,space,3.83532293397,9,1,3.87307804427,2017_Jun_02_0911,None,KRITL,001,31059,
,,,,,,,,"('INCREASE', 'DIVIDE', 'x', 'y')",DIVIDE,2,"(4, 5)",5,5,2,8,0,increase,0,UBxy,,,,,0,1,1,3,,,,,,space,1.78379186138,5,1,1.9520837001,2017_Jun_02_0911,None,KRITL,001,31059,
,,,,,,,,"('TRIPLE', 'INCREASE', 'SUBTRACT', 'x', 'y')",increase,3,"(1, 2, 6)",6,6,2,3,SUBTRACT,triple,0,UUBxy,,,,,0,2,2,9,,,,,,space,5.55755096965,6,1,3.04573847726,2017_Jun_02_0911,None,KRITL,001,31059,
,,,,,,,,"('DECREASE', 'THIRD', 'DOUBLE', 'ADD', 'x', 'y')",third,4,"(9, 18, 6, 5)",5,5,4,5,double,decrease,ADD,UUUBxy,,,,,0,3,3,16,,,,,,space,10.1961237345,7,0,16.5970576471,2017_Jun_02_0911,None,KRITL,001,31059,
,,,,,,,,"('DOUBLE', 'DIVIDE', 'x', 'y')",DIVIDE,2,"(1, 2)",2,2,8,8,0,double,0,UBxy,,,,,0,4,4,2,,,,,,space,2.99633378256,2,1,3.84291084227,2017_Jun_02_0911,None,KRITL,001,31059,
,,,,,,,,"('TRIPLE', 'INCREASE', 'DIVIDE', 'DOUBLE', 'x', 'y')",increase,4,"(16, 2, 3, 9)",9,9,8,8,DIVIDE,triple,double,UUBUxy,,,,,0,5,5,15,,,,,,None,,None,0,,2017_Jun_02_0911,None,KRITL,001,31059,
,,,,,,,,"('SUBTRACT', 'TRIPLE', 'x', 'y')",triple,2,"(12, 9)",9,9,3,4,0,SUBTRACT,0,BUxy,,,,,0,6,6,1,,,,,,space,2.54023267678,9,1,6.61427550029,2017_Jun_02_0911,None,KRITL,001,31059,
,,,,,,,,"('ADD', 'HALF', 'x', 'y')",half,2,"(2, 7)",7,7,5,4,0,ADD,0,BUxy,,,,,0,7,7,0,,,,,,space,1.25104105391,7,1,1.8818376303,2017_Jun_02_0911,None,KRITL,001,31059,
,,,,,,,,"('TRIPLE', 'DOUBLE', 'SUBTRACT', 'INCREASE', 'x', 'y')",double,4,"(5, 1, 2, 6)",6,6,4,4,SUBTRACT,triple,increase,UUBUxy,,,,,0,8,8,14,,,,,,space,6.0668213272,6,1,5.89318974561,2017_Jun_02_0911,None,KRITL,001,31059,
,,,,,,,,"('SUBTRACT', 'INCREASE', 'HALF', 'x', 'y')",increase,3,"(4, 5, 3)",3,3,2,8,half,SUBTRACT,0,BUUxy,,,,,0,9,9,5,,,,,,space,2.88329382823,3,1,5.78331171151,2017_Jun_02_0911,None,KRITL,001,31059,
,,,,,,,,"('HALF', 'TIMES', 'DECREASE', 'x', 'y')",TIMES,3,"(8, 16, 8)",8,8,2,9,decrease,half,0,UBUxy,,,,,0,10,10,6,,,,,,space,3.31872714078,8,1,3.9580726251,2017_Jun_02_0911,None,KRITL,001,31059,
,,,,,,,,"('THIRD', 'INCREASE', 'HALF', 'TIMES', 'x', 'y')",increase,4,"(28, 14, 15, 5)",5,5,4,7,half,third,TIMES,UUUBxy,,,,,0,11,11,17,,,,,,space,3.33608567948,5,1,9.57120829436,2017_Jun_02_0911,None,KRITL,001,31059,
,,,,,,,,"('TIMES', 'HALF', 'INCREASE', 'THIRD', 'x', 'y')",half,4,"(1, 2, 1, 9)",9,9,9,3,increase,TIMES,third,BUUUxy,,,,,0,12,12,11,,,,,,space,8.69242409547,4,0,11.6826846118,2017_Jun_02_0911,None,KRITL,001,31059,
,,,,,,,,"('INCREASE', 'DIVIDE', 'TRIPLE', 'x', 'y')",DIVIDE,3,"(6, 2, 3)",3,3,3,2,triple,increase,0,UBUxy,,,,,0,13,13,7,,,,,,space,5.10626746097,3,1,8.2610878055,2017_Jun_02_0911,None,KRITL,001,31059,
,,,,,,,,"('INCREASE', 'TIMES', 'TRIPLE', 'HALF', 'x', 'y')",TIMES,4,"(1, 3, 6, 7)",7,7,2,2,triple,increase,half,UBUUxy,,,,,0,14,14,13,,,,,,space,8.11700224085,7,1,6.50357855158,2017_Jun_02_0911,None,KRITL,001,31059,
,,,,,,,,"('DIVIDE', 'DOUBLE', 'INCREASE', 'TRIPLE', 'x', 'y')",double,4,"(9, 10, 20, 5)",5,5,4,3,increase,DIVIDE,triple,BUUUxy,,,,,0,15,15,10,,,,,,space,7.506333814,5,1,10.5007043015,2017_Jun_02_0911,None,KRITL,001,31059,
,,,,,,,,"('DIVIDE', 'TRIPLE', 'DECREASE', 'x', 'y')",triple,3,"(6, 18, 9)",9,9,2,7,decrease,DIVIDE,0,BUUxy,,,,,0,16,16,4,,,,,,space,3.66747764871,9,1,7.78329141357,2017_Jun_02_0911,None,KRITL,001,31059,
,,,,,,,,"('HALF', 'SUBTRACT', 'DECREASE', 'TRIPLE', 'x', 'y')",SUBTRACT,4,"(15, 14, 10, 5)",5,5,4,5,decrease,half,triple,UBUUxy,,,,,0,17,17,12,,,,,,space,6.01709781587,5,1,7.04908517795,2017_Jun_02_0911,None,KRITL,001,31059,
,,,,,,,,"('ADD', 'DECREASE', 'THIRD', 'DOUBLE', 'x', 'y')",decrease,4,"(18, 6, 5, 9)",9,9,4,9,third,ADD,double,BUUUxy,,,,,0,0,0,10,,,,,,space,7.77243554639,9,1,5.40085167112,2017_Jun_02_0911,None,KRITL,001,31059,
,,,,,,,,"('ADD', 'TRIPLE', 'DOUBLE', 'DECREASE', 'x', 'y')",triple,4,"(1, 2, 6, 8)",8,8,2,2,double,ADD,decrease,BUUUxy,,,,,0,1,1,11,,,,,,space,5.3494637335,8,1,5.1993808446,2017_Jun_02_0911,None,KRITL,001,31059,
,,,,,,,,"('DECREASE', 'TIMES', 'x', 'y')",TIMES,2,"(9, 8)",8,8,3,3,0,decrease,0,UBxy,,,,,0,2,2,2,,,,,,space,1.97576397902,8,1,2.30751501082,2017_Jun_02_0911,None,KRITL,001,31059,
,,,,,,,,"('DIVIDE', 'DECREASE', 'x', 'y')",decrease,2,"(8, 2)",2,2,4,9,0,DIVIDE,0,BUxy,,,,,0,3,3,1,,,,,,space,2.46538983658,2,1,2.77783758263,2017_Jun_02_0911,None,KRITL,001,31059,
,,,,,,,,"('DECREASE', 'DOUBLE', 'TIMES', 'THIRD', 'x', 'y')",double,4,"(1, 3, 6, 5)",5,5,3,3,TIMES,decrease,third,UUBUxy,,,,,0,4,4,14,,,,,,space,8.40086426982,5,1,5.86260608712,2017_Jun_02_0911,None,KRITL,001,31059,
,,,,,,,,"('INCREASE', 'HALF', 'THIRD', 'TIMES', 'x', 'y')",half,4,"(12, 4, 2, 3)",3,3,4,3,third,increase,TIMES,UUUBxy,,,,,0,5,5,16,,,,,,space,8.2621583438,3,1,3.5537192194,2017_Jun_02_0911,None,KRITL,001,31059,
,,,,,,,,"('DECREASE', 'TRIPLE', 'SUBTRACT', 'DOUBLE', 'x', 'y')",triple,4,"(6, 3, 9, 8)",8,8,3,3,SUBTRACT,decrease,double,UUBUxy,,,,,0,6,6,15,,,,,,space,6.31082671531,8,1,9.09701232682,2017_Jun_02_0911,None,KRITL,001,31059,
,,,,,,,,"('DOUBLE', 'SUBTRACT', 'INCREASE', 'x', 'y')",SUBTRACT,3,"(4, 1, 2)",2,2,3,3,increase,double,0,UBUxy,,,,,0,7,7,6,,,,,,space,2.86726340116,2,1,3.98903984379,2017_Jun_02_0911,None,KRITL,001,31059,
,,,,,,,,"('HALF', 'ADD', 'x', 'y')",ADD,2,"(12, 6)",6,6,8,4,0,half,0,UBxy,,,,,0,8,8,3,,,,,,space,1.49169834121,6,1,3.86088286689,2017_Jun_02_0911,None,KRITL,001,31059,
,,,,,,,,"('INCREASE', 'ADD', 'HALF', 'x', 'y')",ADD,3,"(1, 4, 5)",5,5,3,2,half,increase,0,UBUxy,,,,,0,9,9,7,,,,,,space,3.68329459825,5,1,3.0780537551,2017_Jun_02_0911,None,KRITL,001,31059,
,,,,,,,,"('DECREASE', 'ADD', 'THIRD', 'HALF', 'x', 'y')",ADD,4,"(3, 1, 7, 6)",6,6,6,6,third,decrease,half,UBUUxy,,,,,0,10,10,12,,,,,,space,6.16401458508,6,1,4.26138317457,2017_Jun_02_0911,None,KRITL,001,31059,
,,,,,,,,"('ADD', 'DOUBLE', 'DECREASE', 'x', 'y')",double,3,"(1, 2, 7)",7,7,5,2,decrease,ADD,0,BUUxy,,,,,0,11,11,4,,,,,,space,4.94872755033,7,1,2.97857488564,2017_Jun_02_0911,None,KRITL,001,31059,
,,,,,,,,"('HALF', 'INCREASE', 'TIMES', 'x', 'y')",increase,3,"(9, 10, 5)",5,5,3,3,TIMES,half,0,UUBxy,,,,,0,12,12,9,,,,,,space,3.36260311236,5,1,4.26317498763,2017_Jun_02_0911,None,KRITL,001,31059,
,,,,,,,,"('DOUBLE', 'THIRD', 'ADD', 'x', 'y')",third,3,"(9, 3, 6)",6,6,4,5,ADD,double,0,UUBxy,,,,,0,13,13,8,,,,,,space,6.06787051773,6,1,2.74033969559,2017_Jun_02_0911,None,KRITL,001,31059,
,,,,,,,,"('ADD', 'TRIPLE', 'HALF', 'x', 'y')",triple,3,"(2, 6, 8)",8,8,2,4,half,ADD,0,BUUxy,,,,,0,14,14,5,,,,,,space,5.62245939637,8,1,3.1893473916,2017_Jun_02_0911,None,KRITL,001,31059,
,,,,,,,,"('THIRD', 'HALF', 'INCREASE', 'SUBTRACT', 'x', 'y')",half,4,"(5, 6, 3, 1)",1,1,2,7,increase,third,SUBTRACT,UUUBxy,,,,,0,15,15,17,,,,,,space,9.34930380015,1,1,6.70787078363,2017_Jun_02_0911,None,KRITL,001,31059,
,,,,,,,,"('DECREASE', 'SUBTRACT', 'DOUBLE', 'THIRD', 'x', 'y')",SUBTRACT,4,"(3, 6, 4, 3)",3,3,2,9,double,decrease,third,UBUUxy,,,,,0,16,16,13,,,,,,space,7.38373775687,3,1,5.31709211145,2017_Jun_02_0911,None,KRITL,001,31059,
,,,,,,,,"('ADD', 'DECREASE', 'x', 'y')",decrease,2,"(2, 7)",7,7,5,3,0,ADD,0,BUxy,,,,,0,17,17,0,,,,,,space,2.41749698424,7,1,2.78693943284,2017_Jun_02_0911,None,KRITL,001,31059,
,,,,,,,,"('ADD', 'THIRD', 'INCREASE', 'HALF', 'x', 'y')",third,4,"(2, 3, 1, 7)",7,7,6,4,increase,ADD,half,BUUUxy,,,,,0,0,0,10,,,,,,space,6.22343838413,7,1,5.33349524974,2017_Jun_02_0911,None,KRITL,001,31059,
,,,,,,,,"('DECREASE', 'HALF', 'TRIPLE', 'DIVIDE', 'x', 'y')",half,4,"(4, 12, 6, 5)",5,5,2,8,triple,decrease,DIVIDE,UUUBxy,,,,,0,1,1,16,,,,,,space,6.15031631454,5,1,4.57707158255,2017_Jun_02_0911,None,KRITL,001,31059,
,,,,,,,,"('ADD', 'DOUBLE', 'x', 'y')",double,2,"(4, 8)",8,8,4,2,0,ADD,0,BUxy,,,,,0,2,2,0,,,,,,space,1.38120297145,8,1,2.56363543472,2017_Jun_02_0911,None,KRITL,001,31059,
,,,,,,,,"('DECREASE', 'TIMES', 'DOUBLE', 'THIRD', 'x', 'y')",TIMES,4,"(1, 2, 8, 7)",7,7,4,3,double,decrease,third,UBUUxy,,,,,0,3,3,13,,,,,,space,4.75707319938,7,1,3.34756868111,2017_Jun_02_0911,None,KRITL,001,31059,
,,,,,,,,"('DECREASE', 'ADD', 'DOUBLE', 'THIRD', 'x', 'y')",ADD,4,"(3, 6, 10, 9)",9,9,4,9,double,decrease ,third,UBUUxy,,,,,0,4,4,12,,,,,,space,8.05243047886,9,1,5.44059737364,2017_Jun_02_0911,None,KRITL,001,31059,
,,,,,,,,"('DOUBLE', 'TRIPLE', 'SUBTRACT', 'x', 'y')",triple,3,"(1, 3, 6)",6,6,3,4,SUBTRACT,double,0,UUBxy,,,,,0,5,5,9,,,,,,space,7.82701970043,6,1,2.8358650275,2017_Jun_02_0911,None,KRITL,001,31059,
,,,,,,,,"('DECREASE', 'THIRD', 'TIMES', 'HALF', 'x', 'y')",third,4,"(2, 12, 4, 3)",3,3,6,4,TIMES,decrease,half,UUBUxy,,,,,0,6,6,14,,,,,,space,5.82589666767,3,1,7.73476372741,2017_Jun_02_0911,None,KRITL,001,31059,
,,,,,,,,"('DIVIDE', 'DOUBLE', 'THIRD', 'x', 'y')",double,3,"(2, 4, 1)",1,1,4,6,third,DIVIDE,0,BUUxy,,,,,0,7,7,4,,,,,,space,4.25852397305,1,1,3.77896691475,2017_Jun_02_0911,None,KRITL,001,31059,
,,,,,,,,"('DIVIDE', 'DOUBLE', 'x', 'y')",double,2,"(12, 2)",2,2,6,6,0,DIVIDE,0,BUxy,,,,,0,8,8,1,,,,,,space,1.23464841442,2,1,2.62681294209,2017_Jun_02_0911,None,KRITL,001,31059,
,,,,,,,,"('DOUBLE', 'DECREASE', 'SUBTRACT', 'x', 'y')",decrease,3,"(5, 4, 8)",8,8,2,7,SUBTRACT,double,0,UUBxy,,,,,0,9,9,8,,,,,,space,2.10450434487,8,1,3.70043405972,2017_Jun_02_0911,None,KRITL,001,31059,
,,,,,,,,"('DIVIDE', 'INCREASE', 'DOUBLE', 'THIRD', 'x', 'y')",increase,4,"(2, 4, 5, 1)",1,1,5,6,double,DIVIDE,third,BUUUxy,,,,,0,10,10,11,,,,,,space,5.5250197642,1,1,5.51121510461,2017_Jun_02_0911,None,KRITL,001,31059,
,,,,,,,,"('HALF', 'SUBTRACT', 'TRIPLE', 'x', 'y')",SUBTRACT,3,"(9, 2, 1)",1,1,7,3,triple,half,0,UBUxy,,,,,0,11,11,6,,,,,,space,2.7712649185,1,1,3.42954412708,2017_Jun_02_0911,None,KRITL,001,31059,
,,,,,,,,"('DOUBLE', 'SUBTRACT', 'x', 'y')",SUBTRACT,2,"(1, 2)",2,2,7,8,0,double,0,UBxy,,,,,0,12,12,2,,,,,,space,1.76436818822,2,1,3.66482422559,2017_Jun_02_0911,None,KRITL,001,31059,
,,,,,,,,"('INCREASE', 'DIVIDE', 'THIRD', 'x', 'y')",DIVIDE,3,"(3, 1, 2)",2,2,3,9,third,increase,0,UBUxy,,,,,0,13,13,7,,,,,,space,2.54769529798,2,1,2.74044853414,2017_Jun_02_0911,None,KRITL,001,31059,
,,,,,,,,"('DOUBLE', 'DECREASE', 'TRIPLE', 'DIVIDE', 'x', 'y')",decrease,4,"(1, 3, 2, 4)",4,4,4,4,triple,double,DIVIDE,UUUBxy,,,,,0,14,14,17,,,,,,space,3.55596353521,8,0,6.30527804419,2017_Jun_02_0911,None,KRITL,001,31059,
,,,,,,,,"('SUBTRACT', 'HALF', 'TRIPLE', 'x', 'y')",half,3,"(12, 6, 2)",2,2,4,4,triple,SUBTRACT,0,BUUxy,,,,,0,15,15,5,,,,,,space,4.77267142176,2,1,4.66465239343,2017_Jun_02_0911,None,KRITL,001,31059,
,,,,,,,,"('DOUBLE', 'TRIPLE', 'DIVIDE', 'DECREASE', 'x', 'y')",triple,4,"(8, 1, 3, 6)",6,6,8,9,DIVIDE,double,decrease,UUBUxy,,,,,0,16,16,15,,,,,,space,7.21949569567,6,1,2.55231411604,2017_Jun_02_0911,None,KRITL,001,31059,
,,,,,,,,"('HALF', 'TIMES', 'x', 'y')",TIMES,2,"(16, 8)",8,8,4,4,0,half,0,UBxy,,,,,0,17,17,3,,,,,,space,3.23525910079,8,1,3.19008861424,2017_Jun_02_0911,None,KRITL,001,31059,
,,,,,,,,"('INCREASE', 'DIVIDE', 'HALF', 'x', 'y')",DIVIDE,3,"(2, 1, 2)",2,2,2,4,half,increase,0,UBUxy,,,,,0,0,0,7,,,,,,space,2.18924065272,2,1,2.48923984787,2017_Jun_02_0911,None,KRITL,001,31059,
,,,,,,,,"('DOUBLE', 'TIMES', 'THIRD', 'x', 'y')",TIMES,3,"(1, 4, 8)",8,8,4,3,third,double,0,UBUxy,,,,,0,1,1,6,,,,,,space,2.01791953004,8,1,4.22905494808,2017_Jun_02_0911,None,KRITL,001,31059,
,,,,,,,,"('TRIPLE', 'SUBTRACT', 'INCREASE', 'HALF', 'x', 'y')",SUBTRACT,4,"(3, 4, 1, 3)",3,3,3,6,increase,triple,half,UBUUxy,,,,,0,2,2,13,,,,,,space,5.62168807688,3,1,11.5545923783,2017_Jun_02_0911,None,KRITL,001,31059,
,,,,,,,,"('TRIPLE', 'SUBTRACT', 'x', 'y')",SUBTRACT,2,"(2, 6)",6,6,6,8,0,triple,0,UBxy,,,,,0,3,3,3,,,,,,space,1.04152911645,6,1,5.07979377348,2017_Jun_02_0911,None,KRITL,001,31059,
,,,,,,,,"('TRIPLE', 'HALF', 'TIMES', 'x', 'y')",half,3,"(6, 3, 9)",9,9,3,2,TIMES,triple,0,UUBxy,,,,,0,4,4,9,,,,,,space,5.91165766853,9,1,6.64234957076,2017_Jun_02_0911,None,KRITL,001,31059,
,,,,,,,,"('TIMES', 'DECREASE', 'THIRD', 'DOUBLE', 'x', 'y')",decrease,4,"(6, 2, 1, 2)",2,2,2,3,third,TIMES,double,BUUUxy,,,,,0,5,5,11,,,,,,space,5.15794761817,2,1,6.11515443365,2017_Jun_02_0911,None,KRITL,001,31059,
,,,,,,,,"('SUBTRACT', 'DOUBLE', 'DECREASE', 'x', 'y')",double,3,"(8, 16, 7)",7,7,9,9,decrease,SUBTRACT,0,BUUxy,,,,,0,6,6,5,,,,,,space,1.9258423883,7,1,8.50255630829,2017_Jun_02_0911,None,KRITL,001,31059,
,,,,,,,,"('SUBTRACT', 'THIRD', 'x', 'y')",third,2,"(3, 1)",1,1,2,9,0,SUBTRACT,0,BUxy,,,,,0,7,7,0,,,,,,space,4.91401572246,1,1,4.23089820577,2017_Jun_02_0911,None,KRITL,001,31059,
,,,,,,,,"('DECREASE', 'HALF', 'TRIPLE', 'ADD', 'x', 'y')",half,4,"(4, 12, 6, 5)",5,5,2,2,triple,decrease,ADD,UUUBxy,,,,,0,8,8,16,,,,,,space,10.529592387,5,1,4.17903851729,2017_Jun_02_0911,None,KRITL,001,31059,
,,,,,,,,"('THIRD', 'INCREASE', 'SUBTRACT', 'HALF', 'x', 'y')",increase,4,"(4, 2, 3, 1)",1,1,2,8,SUBTRACT,third,half,UUBUxy,,,,,0,9,9,15,,,,,,space,3.45966513397,1,1,16.9170159594,2017_Jun_02_0911,None,KRITL,001,31059,
,,,,,,,,"('INCREASE', 'TRIPLE', 'HALF', 'ADD', 'x', 'y')",triple,4,"(4, 2, 6, 7)",7,7,2,2,half,increase,ADD,UUUBxy,,,,,0,10,10,17,,,,,,space,5.60214856581,None,0,,2017_Jun_02_0911,None,KRITL,001,31059,
,,,,,,,,"('INCREASE', 'TIMES', 'x', 'y')",TIMES,2,"(8, 9)",9,9,4,2,0,increase,0,UBxy,,,,,0,11,11,2,,,,,,space,3.00469790981,9,1,1.68200358294,2017_Jun_02_0911,None,KRITL,001,31059,
,,,,,,,,"('ADD', 'DECREASE', 'HALF', 'x', 'y')",decrease,3,"(3, 2, 6)",6,6,4,6,half,ADD,0,BUUxy,,,,,0,12,12,4,,,,,,space,2.18574136787,6,1,4.64258054667,2017_Jun_02_0911,None,KRITL,001,31059,
,,,,,,,,"('INCREASE', 'HALF', 'TIMES', 'TRIPLE', 'x', 'y')",half,4,"(6, 12, 6, 7)",7,7,2,2,TIMES,increase,triple,UUBUxy,,,,,0,13,13,14,,,,,,space,8.29163751763,7,1,5.70204809133,2017_Jun_02_0911,None,KRITL,001,31059,
,,,,,,,,"('TIMES', 'THIRD', 'x', 'y')",third,2,"(1, 4)",4,4,4,3,0,TIMES,0,BUxy,,,,,0,14,14,1,,,,,,space,1.28737811209,4,1,2.51227689395,2017_Jun_02_0911,None,KRITL,001,31059,
,,,,,,,,"('DECREASE', 'HALF', 'DIVIDE', 'x', 'y')",half,3,"(4, 2, 1)",1,1,2,8,DIVIDE,decrease,0,UUBxy,,,,,0,15,15,8,,,,,,space,7.83003393596,1,1,3.96203316189,2017_Jun_02_0911,None,KRITL,001,31059,
,,,,,,,,"('DIVIDE', 'DECREASE', 'THIRD', 'DOUBLE', 'x', 'y')",decrease,4,"(12, 4, 3, 1)",1,1,3,6,third,DIVIDE,double,BUUUxy,,,,,0,16,16,10,,,,,,space,6.36969372246,1,1,5.44875012292,2017_Jun_02_0911,None,KRITL,001,31059,
,,,,,,,,"('DECREASE', 'DIVIDE', 'TRIPLE', 'DOUBLE', 'x', 'y')",DIVIDE,4,"(6, 18, 2, 1)",1,1,9,3,triple,decrease,double,UBUUxy,,,,,0,17,17,12,,,,,,space,4.41977209668,1,1,7.28103677381,2017_Jun_02_0911,None,KRITL,001,31059,
,,,,,,,,"('SUBTRACT', 'DECREASE', 'TRIPLE', 'DOUBLE', 'x', 'y')",decrease,4,"(6, 18, 17, 8)",8,8,9,3,triple,SUBTRACT,double,BUUUxy,,,,,0,0,0,11,,,,,,space,6.14140169474,8,1,7.58644010499,2017_Jun_02_0911,None,KRITL,001,31059,
,,,,,,,,"('THIRD', 'INCREASE', 'DIVIDE', 'DOUBLE', 'x', 'y')",increase,4,"(18, 2, 3, 1)",1,1,9,9,DIVIDE,third,double,UUBUxy,,,,,0,1,1,15,,,,,,space,4.40514502313,1,1,5.22242733976,2017_Jun_02_0911,None,KRITL,001,31059,
,,,,,,,,"('THIRD', 'HALF', 'ADD', 'x', 'y')",half,3,"(6, 3, 1)",1,1,3,3,ADD,third,0,UUBxy,,,,,0,2,2,9,,,,,,space,2.80389551353,1,1,5.3205987456,2017_Jun_02_0911,None,KRITL,001,31059,
,,,,,,,,"('INCREASE', 'ADD', 'x', 'y')",ADD,2,"(5, 6)",6,6,2,3,0,increase,0,UBxy,,,,,0,3,3,3,,,,,,space,1.09093696077,7,0,2.21585712535,2017_Jun_02_0911,None,KRITL,001,31059,
,,,,,,,,"('DIVIDE', 'DECREASE', 'TRIPLE', 'x', 'y')",decrease,3,"(9, 8, 4)",4,4,2,3,triple,DIVIDE,0,BUUxy,,,,,0,4,4,5,,,,,,space,2.83403926808,4,1,6.18310334312,2017_Jun_02_0911,None,KRITL,001,31059,
,,,,,,,,"('ADD', 'HALF', 'THIRD', 'x', 'y')",half,3,"(2, 1, 9)",9,9,8,6,third,ADD,0,BUUxy,,,,,0,5,5,4,,,,,,space,5.20304496225,9,1,3.44833996566,2017_Jun_02_0911,None,KRITL,001,31059,
,,,,,,,,"('THIRD', 'DOUBLE', 'INCREASE', 'TIMES', 'x', 'y')",double,4,"(8, 9, 18, 6)",6,6,4,2,increase,third,TIMES,UUUBxy,,,,,0,6,6,17,,,,,,space,6.91890331253,6,1,3.23460956849,2017_Jun_02_0911,None,KRITL,001,31059,
,,,,,,,,"('THIRD', 'TIMES', 'DOUBLE', 'DECREASE', 'x', 'y')",TIMES,4,"(1, 2, 6, 2)",2,2,3,2,double,third,decrease,UBUUxy,,,,,0,7,7,13,,,,,,space,7.03269428841,2,1,5.02748473198,2017_Jun_02_0911,None,KRITL,001,31059,
,,,,,,,,"('SUBTRACT', 'DECREASE', 'x', 'y')",decrease,2,"(5, 3)",3,3,2,6,0,SUBTRACT,0,BUxy,,,,,0,8,8,1,,,,,,space,1.7152893095,3,1,2.43652344868,2017_Jun_02_0911,None,KRITL,001,31059,
,,,,,,,,"('HALF', 'TRIPLE', 'INCREASE', 'DIVIDE', 'x', 'y')",triple,4,"(3, 4, 12, 6)",6,6,3,9,increase,half,DIVIDE,UUUBxy,,,,,0,9,9,16,,,,,,space,7.01506592787,6,1,4.10758052394,2017_Jun_02_0911,None,KRITL,001,31059,
,,,,,,,,"('DIVIDE', 'INCREASE', 'x', 'y')",increase,2,"(4, 2)",2,2,2,3,0,DIVIDE,0,BUxy,,,,,0,10,10,0,,,,,,space,1.37626463675,2,1,1.87830019929,2017_Jun_02_0911,None,KRITL,001,31059,
,,,,,,,,"('THIRD', 'DOUBLE', 'ADD', 'DECREASE', 'x', 'y')",double,4,"(5, 12, 24, 8)",8,8,7,6,ADD,third,decrease,UUBUxy,,,,,0,11,11,14,,,,,,space,6.88365954009,8,1,9.43115745869,2017_Jun_02_0911,None,KRITL,001,31059,
,,,,,,,,"('ADD', 'DOUBLE', 'DECREASE', 'THIRD', 'x', 'y')",double,4,"(2, 1, 2, 8)",8,8,6,6,decrease,ADD,third,BUUUxy,,,,,0,12,12,10,,,,,,space,6.48692413943,8,1,6.96298856218,2017_Jun_02_0911,None,KRITL,001,31059,
,,,,,,,,"('INCREASE', 'SUBTRACT', 'HALF', 'x', 'y')",SUBTRACT,3,"(4, 2, 3)",3,3,2,8,half,increase,0,UBUxy,,,,,0,13,13,7,,,,,,space,5.02667316666,3,1,4.09867255355,2017_Jun_02_0911,None,KRITL,001,31059,
,,,,,,,,"('INCREASE', 'TRIPLE', 'DIVIDE', 'x', 'y')",triple,3,"(2, 6, 7)",7,7,3,6,DIVIDE,increase,0,UUBxy,,,,,0,14,14,8,,,,,,space,2.93387090066,7,1,5.15860065003,2017_Jun_02_0911,None,KRITL,001,31059,
,,,,,,,,"('DECREASE', 'DIVIDE', 'x', 'y')",DIVIDE,2,"(2, 1)",1,1,4,8,0,decrease,0,UBxy,,,,,0,15,15,2,,,,,,space,1.98416030291,1,1,2.83751510526,2017_Jun_02_0911,None,KRITL,001,31059,
,,,,,,,,"('HALF', 'ADD', 'TRIPLE', 'x', 'y')",ADD,3,"(9, 12, 6)",6,6,3,3,triple,half,0,UBUxy,,,,,0,16,16,6,,,,,,space,3.22346253169,6,1,5.76557976182,2017_Jun_02_0911,None,KRITL,001,31059,
,,,,,,,,"('DOUBLE', 'ADD', 'INCREASE', 'THIRD', 'x', 'y')",ADD,4,"(1, 2, 4, 8)",8,8,2,3,increase,double,third,UBUUxy,,,,,0,17,17,12,,,,,,space,3.33063569816,8,1,5.34815626987,2017_Jun_02_0911,None,KRITL,001,31059,
,,,,,,,,"('THIRD', 'TIMES', 'DECREASE', 'x', 'y')",TIMES,3,"(3, 15, 5)",5,5,5,4,decrease,third,0,UBUxy,,,,,0,0,0,7,,,,,,space,3.52019306784,5,1,5.01363912679,2017_Jun_02_0911,None,KRITL,001,31059,
,,,,,,,,"('TRIPLE', 'HALF', 'ADD', 'DECREASE', 'x', 'y')",half,4,"(1, 4, 2, 6)",6,6,3,2,ADD,triple,decrease,UUBUxy,,,,,0,1,1,15,,,,,,space,6.69191034918,6,1,5.17217538343,2017_Jun_02_0911,None,KRITL,001,31059,
,,,,,,,,"('SUBTRACT', 'HALF', 'INCREASE', 'TRIPLE', 'x', 'y')",half,4,"(15, 16, 8, 3)",3,3,5,5,increase,SUBTRACT,triple,BUUUxy,,,,,0,2,2,10,,,,,,space,6.45641992264,3,1,6.14688597235,2017_Jun_02_0911,None,KRITL,001,31059,
,,,,,,,,"('TIMES', 'INCREASE', 'THIRD', 'DOUBLE', 'x', 'y')",increase,4,"(6, 2, 3, 9)",9,9,3,3,third,TIMES,double,BUUUxy,,,,,0,3,3,11,,,,,,space,4.75924717262,9,1,3.85625739954,2017_Jun_02_0911,None,KRITL,001,31059,
,,,,,,,,"('THIRD', 'DECREASE', 'TIMES', 'x', 'y')",decrease,3,"(25, 24, 8)",8,8,5,5,TIMES,third,0,UUBxy,,,,,0,4,4,8,,,,,,space,2.45735152543,8,1,7.44043394062,2017_Jun_02_0911,None,KRITL,001,31059,
,,,,,,,,"('TRIPLE', 'DECREASE', 'HALF', 'TIMES', 'x', 'y')",decrease,4,"(6, 3, 2, 6)",6,6,2,3,half,triple,TIMES,UUUBxy,,,,,0,5,5,17,,,,,,space,3.82821657567,6,1,6.77410732186,2017_Jun_02_0911,None,KRITL,001,31059,
,,,,,,,,"('THIRD', 'ADD', 'INCREASE', 'x', 'y')",ADD,3,"(8, 15, 5)",5,5,7,7,increase,third,0,UBUxy,,,,,0,6,6,6,,,,,,space,1.74612249213,5,1,5.38220981648,2017_Jun_02_0911,None,KRITL,001,31059,
,,,,,,,,"('INCREASE', 'DIVIDE', 'TRIPLE', 'DOUBLE', 'x', 'y')",DIVIDE,4,"(6, 18, 3, 4)",4,4,6,3,triple,increase,double,UBUUxy,,,,,0,7,7,12,,,,,,space,5.92475890135,4,1,3.35235338192,2017_Jun_02_0911,None,KRITL,001,31059,
,,,,,,,,"('TIMES', 'THIRD', 'HALF', 'x', 'y')",third,3,"(3, 1, 5)",5,5,5,6,half,TIMES,0,BUUxy,,,,,0,8,8,5,,,,,,space,4.18325487734,5,1,2.74218750268,2017_Jun_02_0911,None,KRITL,001,31059,
,,,,,,,,"('THIRD', 'SUBTRACT', 'x', 'y')",SUBTRACT,2,"(3, 1)",1,1,2,5,0,third,0,UBxy,,,,,0,9,9,3,,,,,,space,1.26533776207,1,1,2.69625164615,2017_Jun_02_0911,None,KRITL,001,31059,
,,,,,,,,"('THIRD', 'INCREASE', 'HALF', 'DIVIDE', 'x', 'y')",increase,4,"(4, 2, 3, 1)",1,1,2,8,half,third,DIVIDE,UUUBxy,,,,,0,10,10,16,,,,,,space,3.39415966941,1,1,5.1932925299,2017_Jun_02_0911,None,KRITL,001,31059,
,,,,,,,,"('TRIPLE', 'HALF', 'DIVIDE', 'x', 'y')",half,3,"(2, 1, 3)",3,3,2,4,DIVIDE,triple,0,UUBxy,,,,,0,11,11,9,,,,,,space,2.66175294598,3,1,8.23963749385,2017_Jun_02_0911,None,KRITL,001,31059,
,,,,,,,,"('THIRD', 'ADD', 'x', 'y')",ADD,2,"(9, 3)",3,3,5,4,0,third,0,UBxy,,,,,0,12,12,2,,,,,,space,1.15752871195,4,0,2.49872035859,2017_Jun_02_0911,None,KRITL,001,31059,
,,,,,,,,"('TIMES', 'DECREASE', 'x', 'y')",decrease,2,"(2, 4)",4,4,2,3,0,TIMES,0,BUxy,,,,,0,13,13,0,,,,,,space,1.55533255113,4,1,1.90793860669,2017_Jun_02_0911,None,KRITL,001,31059,
,,,,,,,,"('TRIPLE', 'SUBTRACT', 'DOUBLE', 'DECREASE', 'x', 'y')",SUBTRACT,4,"(2, 4, 1, 3)",3,3,3,3,double,triple,decrease,UBUUxy,,,,,0,14,14,13,,,,,,space,3.20861078147,3,1,5.68477949325,2017_Jun_02_0911,None,KRITL,001,31059,
,,,,,,,,"('THIRD', 'DOUBLE', 'ADD', 'INCREASE', 'x', 'y')",double,4,"(10, 12, 24, 8)",8,8,2,9,ADD,third,increase,UUBUxy,,,,,0,15,15,14,,,,,,space,5.76615930127,8,1,8.19787005219,2017_Jun_02_0911,None,KRITL,001,31059,
,,,,,,,,"('TIMES', 'INCREASE', 'x', 'y')",increase,2,"(3, 6)",6,6,2,2,0,TIMES,0,BUxy,,,,,0,16,16,1,,,,,,space,1.19009491359,6,1,3.09207784163,2017_Jun_02_0911,None,KRITL,001,31059,
,,,,,,,,"('TIMES', 'DECREASE', 'HALF', 'x', 'y')",decrease,3,"(4, 3, 9)",9,9,3,8,half,TIMES,0,BUUxy,,,,,0,17,17,4,,,,,,space,1.97562434361,9,1,3.1685448623,2017_Jun_02_0911,None,KRITL,001,31059,
,,,,,,,,"('DOUBLE', 'THIRD', 'TIMES', 'x', 'y')",third,3,"(12, 4, 8)",8,8,6,2,TIMES,double,0,UUBxy,,,,,0,0,0,9,,,,,,space,3.90094738605,4,0,15.7664175744,2017_Jun_02_0911,None,KRITL,001,31059,
,,,,,,,,"('INCREASE', 'ADD', 'HALF', 'TRIPLE', 'x', 'y')",ADD,4,"(6, 3, 6, 7)",7,7,3,2,half,increase,triple,UBUUxy,,,,,0,1,1,13,,,,,,space,6.01501133363,7,1,4.95443615457,2017_Jun_02_0911,None,KRITL,001,31059,
,,,,,,,,"('DOUBLE', 'DECREASE', 'ADD', 'x', 'y')",decrease,3,"(4, 3, 6)",6,6,2,2,ADD,double,0,UUBxy,,,,,0,2,2,8,,,,,,space,2.0825392371,6,1,3.33249890374,2017_Jun_02_0911,None,KRITL,001,31059,
,,,,,,,,"('DECREASE', 'TRIPLE', 'DIVIDE', 'DOUBLE', 'x', 'y')",triple,4,"(6, 2, 6, 5)",5,5,3,3,DIVIDE,decrease,double,UUBUxy,,,,,0,3,3,14,,,,,,space,6.43737071031,5,1,6.44922257366,2017_Jun_02_0911,None,KRITL,001,31059,
,,,,,,,,"('TIMES', 'HALF', 'INCREASE', 'x', 'y')",half,3,"(6, 3, 9)",9,9,3,5,increase,TIMES,0,BUUxy,,,,,0,4,4,5,,,,,,space,3.57513418468,9,1,5.50703374099,2017_Jun_02_0911,None,KRITL,001,31059,
,,,,,,,,"('INCREASE', 'SUBTRACT', 'x', 'y')",SUBTRACT,2,"(3, 4)",4,4,3,6,0,increase,0,UBxy,,,,,0,5,5,2,,,,,,space,1.18597094389,4,1,2.78631859762,2017_Jun_02_0911,None,KRITL,001,31059,
,,,,,,,,"('HALF', 'TRIPLE', 'INCREASE', 'SUBTRACT', 'x', 'y')",triple,4,"(1, 2, 6, 3)",3,3,2,3,increase,half,SUBTRACT,UUUBxy,,,,,0,6,6,17,,,,,,space,5.92908235022,3,1,3.71635949786,2017_Jun_02_0911,None,KRITL,001,31059,
,,,,,,,,"('SUBTRACT', 'DOUBLE', 'TRIPLE', 'DECREASE', 'x', 'y')",double,4,"(2, 6, 12, 8)",8,8,4,3,triple,SUBTRACT,decrease,BUUUxy,,,,,0,7,7,10,,,,,,space,4.53369045944,8,1,8.29588607431,2017_Jun_02_0911,None,KRITL,001,31059,
,,,,,,,,"('SUBTRACT', 'TRIPLE', 'DECREASE', 'x', 'y')",triple,3,"(4, 12, 3)",3,3,9,5,decrease,SUBTRACT,0,BUUxy,,,,,0,8,8,4,,,,,,space,2.91912938887,3,1,6.38720554509,2017_Jun_02_0911,None,KRITL,001,31059,
,,,,,,,,"('SUBTRACT', 'TRIPLE', 'DECREASE', 'DOUBLE', 'x', 'y')",triple,4,"(4, 3, 9, 1)",1,1,8,2,decrease,SUBTRACT,double,BUUUxy,,,,,0,9,9,11,,,,,,space,6.53331039904,1,1,6.19846289034,2017_Jun_02_0911,None,KRITL,001,31059,
,,,,,,,,"('TIMES', 'DOUBLE', 'x', 'y')",double,2,"(4, 8)",8,8,2,2,0,TIMES,0,BUxy,,,,,0,10,10,1,,,,,,space,1.01105009695,8,1,3.57462988736,2017_Jun_02_0911,None,KRITL,001,31059,
,,,,,,,,"('DECREASE', 'TRIPLE', 'HALF', 'SUBTRACT', 'x', 'y')",triple,4,"(4, 2, 6, 5)",5,5,2,6,half,decrease,SUBTRACT,UUUBxy,,,,,0,11,11,16,,,,,,space,4.72571542149,5,1,7.39448303566,2017_Jun_02_0911,None,KRITL,001,31059,
,,,,,,,,"('THIRD', 'DIVIDE', 'x', 'y')",DIVIDE,2,"(3, 1)",1,1,2,6,0,third,0,UBxy,,,,,0,12,12,3,,,,,,space,1.34706998325,1,1,2.98348942283,2017_Jun_02_0911,None,KRITL,001,31059,
,,,,,,,,"('THIRD', 'DECREASE', 'TIMES', 'HALF', 'x', 'y')",decrease,4,"(4, 16, 15, 5)",5,5,4,8,TIMES,third,half,UUBUxy,,,,,0,13,13,15,,,,,,space,4.13120725844,5,1,6.9636279454,2017_Jun_02_0911,None,KRITL,001,31059,
,,,,,,,,"('THIRD', 'TIMES', 'HALF', 'x', 'y')",TIMES,3,"(3, 18, 6)",6,6,6,6,half,third,0,UBUxy,,,,,0,14,14,7,,,,,,space,1.68518020143,6,1,3.74830766406,2017_Jun_02_0911,None,KRITL,001,31059,
,,,,,,,,"('DIVIDE', 'THIRD', 'x', 'y')",third,2,"(3, 1)",1,1,3,9,0,DIVIDE,0,BUxy,,,,,0,15,15,0,,,,,,space,4.03665727482,1,1,2.13457320724,2017_Jun_02_0911,None,KRITL,001,31059,
,,,,,,,,"('DOUBLE', 'DIVIDE', 'TRIPLE', 'INCREASE', 'x', 'y')",DIVIDE,4,"(5, 15, 3, 6)",6,6,5,4,triple,double,increase,UBUUxy,,,,,0,16,16,12,,,,,,space,5.67991395097,6,1,7.97775457136,2017_Jun_02_0911,None,KRITL,001,31059,
,,,,,,,,"('THIRD', 'DIVIDE', 'DECREASE', 'x', 'y')",DIVIDE,3,"(6, 3, 1)",1,1,2,7,decrease,third,0,UBUxy,,,,,0,17,17,6,,,,,,space,2.56164449244,1,1,4.32626850391,2017_Jun_02_0911,None,KRITL,001,31059,
,,,,,,,,"('THIRD', 'TIMES', 'HALF', 'INCREASE', 'x', 'y')",TIMES,4,"(8, 4, 12, 4)",4,4,3,7,half,third,increase,UBUUxy,,,,,0,0,0,13,,,,,,space,3.22676583694,4,1,4.56767716282,2017_Jun_02_0911,None,KRITL,001,31059,
,,,,,,,,"('ADD', 'THIRD', 'x', 'y')",third,2,"(1, 7)",7,7,6,3,0,ADD,0,BUxy,,,,,0,1,1,0,,,,,,space,1.21690631576,7,1,2.50421233545,2017_Jun_02_0911,None,KRITL,001,31059,
,,,,,,,,"('INCREASE', 'SUBTRACT', 'THIRD', 'x', 'y')",SUBTRACT,3,"(3, 1, 2)",2,2,2,9,third,increase,0,UBUxy,,,,,0,2,2,7,,,,,,space,1.76619849715,2,1,2.94644053886,2017_Jun_02_0911,None,KRITL,001,31059,
,,,,,,,,"('TRIPLE', 'DECREASE', 'HALF', 'SUBTRACT', 'x', 'y')",decrease,4,"(4, 2, 1, 3)",3,3,5,9,half,triple,SUBTRACT,UUUBxy,,,,,0,3,3,17,,,,,,space,3.87670471577,3,1,4.93013853999,2017_Jun_02_0911,None,KRITL,001,31059,
,,,,,,,,"('TIMES', 'THIRD', 'DOUBLE', 'x', 'y')",third,3,"(6, 2, 4)",4,4,2,3,double,TIMES,0,BUUxy,,,,,0,4,4,5,,,,,,space,3.09738013835,4,1,2.2093474546,2017_Jun_02_0911,None,KRITL,001,31059,
,,,,,,,,"('SUBTRACT', 'INCREASE', 'x', 'y')",increase,2,"(6, 2)",2,2,4,5,0,SUBTRACT,0,BUxy,,,,,0,5,5,1,,,,,,space,1.46202773741,2,1,2.887158475,2017_Jun_02_0911,None,KRITL,001,31059,
,,,,,,,,"('DECREASE', 'TRIPLE', 'DIVIDE', 'x', 'y')",triple,3,"(2, 6, 5)",5,5,4,8,DIVIDE,decrease,0,UUBxy,,,,,0,6,6,8,,,,,,space,3.26926295238,5,1,5.95270838484,2017_Jun_02_0911,None,KRITL,001,31059,
,,,,,,,,"('THIRD', 'INCREASE', 'ADD', 'DOUBLE', 'x', 'y')",increase,4,"(16, 20, 21, 7)",7,7,4,8,ADD,third,double,UUBUxy,,,,,0,7,7,14,,,,,,space,3.68680263218,None,0,,2017_Jun_02_0911,None,KRITL,001,31059,
,,,,,,,,"('DIVIDE', 'TRIPLE', 'HALF', 'x', 'y')",triple,3,"(4, 12, 4)",4,4,3,8,half,DIVIDE,0,BUUxy,,,,,0,8,8,4,,,,,,space,3.41361623921,4,1,5.55682269554,2017_Jun_02_0911,None,KRITL,001,31059,
,,,,,,,,"('TRIPLE', 'DOUBLE', 'SUBTRACT', 'DECREASE', 'x', 'y')",double,4,"(4, 1, 2, 6)",6,6,3,5,SUBTRACT,triple,decrease,UUBUxy,,,,,0,9,9,15,,,,,,space,5.65369993646,6,1,5.47905381082,2017_Jun_02_0911,None,KRITL,001,31059,
,,,,,,,,"('THIRD', 'INCREASE', 'SUBTRACT', 'x', 'y')",increase,3,"(2, 3, 1)",1,1,6,8,SUBTRACT,third,0,UUBxy,,,,,0,10,10,9,,,,,,space,2.22351082671,1,1,3.25476221554,2017_Jun_02_0911,None,KRITL,001,31059,
,,,,,,,,"('TIMES', 'INCREASE', 'HALF', 'TRIPLE', 'x', 'y')",increase,4,"(6, 3, 4, 8)",8,8,2,2,half,TIMES,triple,BUUUxy,,,,,0,11,11,11,,,,,,space,3.74688471248,8,1,4.0689869012,2017_Jun_02_0911,None,KRITL,001,31059,
,,,,,,,,"('DOUBLE', 'ADD', 'x', 'y')",ADD,2,"(4, 8)",8,8,2,2,0,double,0,UBxy,,,,,0,12,12,2,,,,,,space,1.63408063375,8,1,4.00318886724,2017_Jun_02_0911,None,KRITL,001,31059,
,,,,,,,,"('DOUBLE', 'TIMES', 'x', 'y')",TIMES,2,"(4, 8)",8,8,2,2,0,double,0,UBxy,,,,,0,13,13,3,,,,,,space,1.10962816025,8,1,3.17545524123,2017_Jun_02_0911,None,KRITL,001,31059,
,,,,,,,,"('DECREASE', 'TRIPLE', 'HALF', 'ADD', 'x', 'y')",triple,4,"(6, 3, 9, 8)",8,8,2,4,half,decrease,ADD,UUUBxy,,,,,0,14,14,16,,,,,,space,5.33235506876,8,1,14.4229018202,2017_Jun_02_0911,None,KRITL,001,31059,
,,,,,,,,"('INCREASE', 'DIVIDE', 'TRIPLE', 'HALF', 'x', 'y')",DIVIDE,4,"(2, 6, 2, 3)",3,3,3,4,triple,increase,half,UBUUxy,,,,,0,15,15,12,,,,,,space,5.8943775217,3,1,10.0052218051,2017_Jun_02_0911,None,KRITL,001,31059,
,,,,,,,,"('INCREASE', 'ADD', 'TRIPLE', 'x', 'y')",ADD,3,"(6, 8, 9)",9,9,2,2,triple,increase,0,UBUxy,,,,,0,16,16,6,,,,,,space,2.16332690686,9,1,6.53040710208,2017_Jun_02_0911,None,KRITL,001,31059,
,,,,,,,,"('DIVIDE', 'DOUBLE', 'INCREASE', 'THIRD', 'x', 'y')",double,4,"(2, 3, 6, 2)",2,2,3,6,increase,DIVIDE,third,BUUUxy,,,,,0,17,17,10,,,,,,space,4.49858422275,2,1,8.07235005032,2017_Jun_02_0911,None,KRITL,001,31059,
