operationc,operationb,operationa,correctresponse,valuey,operationd,condition,valuex,Rule,Operatora,Length,Intermediate,CorrectResponse,Result,Y,X,Operatorc,Operatorb,Operatord,Structure,practice_trials.thisRepN,practice_trials.thisTrialN,practice_trials.thisN,practice_trials.thisIndex,block.thisRepN,block.thisTrialN,block.thisN,block.thisIndex,practice_encoding.keys,practice_encoding.rt,practice_execution.keys,practice_execution.corr,practice_execution.rt,encoding.keys,encoding.rt,execution.keys,execution.corr,execution.rt,date,frameRate,expName,session,participant,
increase,DIVIDE,double,9,8,triple,4,8,,,,,,,,,,,,,0,0,0,5,,,,,['space'],[11.905171584920026],None,0,,,,,,,2015_Jul_09_1535,360.822427182,KRITL,001,31017,
0,decrease,TIMES,8,3,0,2,3,,,,,,,,,,,,,0,1,1,1,,,,,['space'],[3.8117940454394557],None,0,,,,,,,2015_Jul_09_1535,360.822427182,KRITL,001,31017,
ADD,triple ,half,8,2,0,3,4,,,,,,,,,,,,,0,2,2,3,,,,,None,,5,0,4.98909755878,,,,,,2015_Jul_09_1535,360.822427182,KRITL,001,31017,
0,ADD,decrease,7,5,0,2,3,,,,,,,,,,,,,0,3,3,0,,,,,['space'],[3.5820944143342786],7,1,2.51989975275,,,,,,2015_Jul_09_1535,360.822427182,KRITL,001,31017,
increase,DIVIDE,triple,3,3,0,3,2,,,,,,,,,,,,,0,4,4,4,,,,,['space'],[4.060955942317378],2,0,7.66891734902,,,,,,2015_Jul_09_1535,360.822427182,KRITL,001,31017,
0,ADD,half,7,5,0,2,4,,,,,,,,,,,,,0,5,5,2,,,,,['space'],[1.3584905143943615],7,1,1.94081898511,,,,,,2015_Jul_09_1535,360.822427182,KRITL,001,31017,
,,,,,,,,"('ADD', 'HALF', 'THIRD', 'x', 'y')",half,3,"(2, 1, 9)",9,9,8,6,third,ADD,0,BUUxy,,,,,0,0,0,4,,,,,,space,4.59265432577,None,0,,2015_Jul_09_1535,360.822427182,KRITL,001,31017,
,,,,,,,,"('THIRD', 'DOUBLE', 'ADD', 'DECREASE', 'x', 'y')",double,4,"(5, 12, 24, 8)",8,8,7,6,ADD,third,decrease,UUBUxy,,,,,0,1,1,14,,,,,,space,5.90172028006,9,0,6.35803574696,2015_Jul_09_1535,360.822427182,KRITL,001,31017,
,,,,,,,,"('THIRD', 'INCREASE', 'DIVIDE', 'DOUBLE', 'x', 'y')",increase,4,"(18, 2, 3, 1)",1,1,9,9,DIVIDE,third,double,UUBUxy,,,,,0,2,2,15,,,,,,space,3.04722737311,3,0,6.51669208554,2015_Jul_09_1535,360.822427182,KRITL,001,31017,
,,,,,,,,"('HALF', 'ADD', 'TRIPLE', 'x', 'y')",ADD,3,"(9, 12, 6)",6,6,3,3,triple,half,0,UBUxy,,,,,0,3,3,6,,,,,,space,1.63966885814,6,1,5.90816949104,2015_Jul_09_1535,360.822427182,KRITL,001,31017,
,,,,,,,,"('DOUBLE', 'ADD', 'INCREASE', 'THIRD', 'x', 'y')",ADD,4,"(1, 2, 4, 8)",8,8,2,3,increase,double,third,UBUUxy,,,,,0,4,4,12,,,,,,space,6.45446046756,4,0,10.3909045833,2015_Jul_09_1535,360.822427182,KRITL,001,31017,
,,,,,,,,"('THIRD', 'DOUBLE', 'INCREASE', 'TIMES', 'x', 'y')",double,4,"(8, 9, 18, 6)",6,6,4,2,increase,third,TIMES,UUUBxy,,,,,0,5,5,17,,,,,,space,5.6682743784,6,1,8.59980570583,2015_Jul_09_1535,360.822427182,KRITL,001,31017,
,,,,,,,,"('THIRD', 'HALF', 'ADD', 'x', 'y')",half,3,"(6, 3, 1)",1,1,3,3,ADD,third,0,UUBxy,,,,,0,6,6,9,,,,,,space,1.50806142821,3,0,4.27814998291,2015_Jul_09_1535,360.822427182,KRITL,001,31017,
,,,,,,,,"('DIVIDE', 'INCREASE', 'x', 'y')",increase,2,"(4, 2)",2,2,2,3,0,DIVIDE,0,BUxy,,,,,0,7,7,0,,,,,,space,1.33572168922,2,1,3.07599953871,2015_Jul_09_1535,360.822427182,KRITL,001,31017,
,,,,,,,,"('DIVIDE', 'DECREASE', 'TRIPLE', 'x', 'y')",decrease,3,"(9, 8, 4)",4,4,2,3,triple,DIVIDE,0,BUUxy,,,,,0,8,8,5,,,,,,space,2.37530595856,4,1,5.07698846108,2015_Jul_09_1535,360.822427182,KRITL,001,31017,
,,,,,,,,"('ADD', 'DOUBLE', 'DECREASE', 'THIRD', 'x', 'y')",double,4,"(2, 1, 2, 8)",8,8,6,6,decrease,ADD,third,BUUUxy,,,,,0,9,9,10,,,,,,space,7.79879262508,8,1,6.34255004412,2015_Jul_09_1535,360.822427182,KRITL,001,31017,
,,,,,,,,"('SUBTRACT', 'DECREASE', 'x', 'y')",decrease,2,"(5, 3)",3,3,2,6,0,SUBTRACT,0,BUxy,,,,,0,10,10,1,,,,,,space,2.05271674762,3,1,2.99771521293,2015_Jul_09_1535,360.822427182,KRITL,001,31017,
,,,,,,,,"('INCREASE', 'ADD', 'x', 'y')",ADD,2,"(5, 6)",6,6,2,3,0,increase,0,UBxy,,,,,0,11,11,3,,,,,,space,1.20427645615,4,0,1.62223781837,2015_Jul_09_1535,360.822427182,KRITL,001,31017,
,,,,,,,,"('SUBTRACT', 'DECREASE', 'TRIPLE', 'DOUBLE', 'x', 'y')",decrease,4,"(6, 18, 17, 8)",8,8,9,3,triple,SUBTRACT,double,BUUUxy,,,,,0,12,12,11,,,,,,space,4.43812203303,None,0,,2015_Jul_09_1535,360.822427182,KRITL,001,31017,
,,,,,,,,"('THIRD', 'TIMES', 'DOUBLE', 'DECREASE', 'x', 'y')",TIMES,4,"(1, 2, 6, 2)",2,2,3,2,double,third,decrease,UBUUxy,,,,,0,13,13,13,,,,,,space,2.16977196268,2,1,8.99785277242,2015_Jul_09_1535,360.822427182,KRITL,001,31017,
,,,,,,,,"('INCREASE', 'SUBTRACT', 'HALF', 'x', 'y')",SUBTRACT,3,"(4, 2, 3)",3,3,2,8,half,increase,0,UBUxy,,,,,0,14,14,7,,,,,,space,1.92689434235,5,0,4.88467625453,2015_Jul_09_1535,360.822427182,KRITL,001,31017,
,,,,,,,,"('INCREASE', 'TRIPLE', 'DIVIDE', 'x', 'y')",triple,3,"(2, 6, 7)",7,7,3,6,DIVIDE,increase,0,UUBxy,,,,,0,15,15,8,,,,,,space,1.95683063049,3,0,4.78942147357,2015_Jul_09_1535,360.822427182,KRITL,001,31017,
,,,,,,,,"('DECREASE', 'DIVIDE', 'x', 'y')",DIVIDE,2,"(2, 1)",1,1,4,8,0,decrease,0,UBxy,,,,,0,16,16,2,,,,,,space,1.44587361027,3,0,4.48526351701,2015_Jul_09_1535,360.822427182,KRITL,001,31017,
,,,,,,,,"('HALF', 'TRIPLE', 'INCREASE', 'DIVIDE', 'x', 'y')",triple,4,"(3, 4, 12, 6)",6,6,3,9,increase,half,DIVIDE,UUUBxy,,,,,0,17,17,16,,,,,,space,5.94514184189,2,0,6.53291383403,2015_Jul_09_1535,360.822427182,KRITL,001,31017,
,,,,,,,,"('TRIPLE', 'SUBTRACT', 'DOUBLE', 'DECREASE', 'x', 'y')",SUBTRACT,4,"(2, 4, 1, 3)",3,3,3,3,double,triple,decrease,UBUUxy,,,,,0,0,0,13,,,,,,space,5.93426198501,4,0,13.2394947531,2015_Jul_09_1535,360.822427182,KRITL,001,31017,
,,,,,,,,"('THIRD', 'INCREASE', 'HALF', 'DIVIDE', 'x', 'y')",increase,4,"(4, 2, 3, 1)",1,1,2,8,half,third,DIVIDE,UUUBxy,,,,,0,1,1,16,,,,,,space,2.35560313484,8,0,7.20719155285,2015_Jul_09_1535,360.822427182,KRITL,001,31017,
,,,,,,,,"('TIMES', 'INCREASE', 'THIRD', 'DOUBLE', 'x', 'y')",increase,4,"(6, 2, 3, 9)",9,9,3,3,third,TIMES,double,BUUUxy,,,,,0,2,2,11,,,,,,space,6.16475480713,9,1,12.7436093887,2015_Jul_09_1535,360.822427182,KRITL,001,31017,
,,,,,,,,"('THIRD', 'ADD', 'x', 'y')",ADD,2,"(9, 3)",3,3,5,4,0,third,0,UBxy,,,,,0,3,3,2,,,,,,space,1.20448963903,2,0,7.14115891431,2015_Jul_09_1535,360.822427182,KRITL,001,31017,
,,,,,,,,"('TIMES', 'INCREASE', 'x', 'y')",increase,2,"(3, 6)",6,6,2,2,0,TIMES,0,BUxy,,,,,0,4,4,1,,,,,,space,1.40009198006,6,1,3.98876563669,2015_Jul_09_1535,360.822427182,KRITL,001,31017,
,,,,,,,,"('TIMES', 'DECREASE', 'HALF', 'x', 'y')",decrease,3,"(4, 3, 9)",9,9,3,8,half,TIMES,0,BUUxy,,,,,0,5,5,4,,,,,,space,2.16452211956,9,1,3.97446629842,2015_Jul_09_1535,360.822427182,KRITL,001,31017,
,,,,,,,,"('SUBTRACT', 'HALF', 'INCREASE', 'TRIPLE', 'x', 'y')",half,4,"(15, 16, 8, 3)",3,3,5,5,increase,SUBTRACT,triple,BUUUxy,,,,,0,6,6,10,,,,,,space,3.09523219656,3,1,8.80458380916,2015_Jul_09_1535,360.822427182,KRITL,001,31017,
,,,,,,,,"('TRIPLE', 'HALF', 'DIVIDE', 'x', 'y')",half,3,"(2, 1, 3)",3,3,2,4,DIVIDE,triple,0,UUBxy,,,,,0,7,7,9,,,,,,space,1.2992828089,3,1,9.2716080391,2015_Jul_09_1535,360.822427182,KRITL,001,31017,
,,,,,,,,"('TIMES', 'DECREASE', 'x', 'y')",decrease,2,"(2, 4)",4,4,2,3,0,TIMES,0,BUxy,,,,,0,8,8,0,,,,,,space,1.06208037096,4,1,2.42415393243,2015_Jul_09_1535,360.822427182,KRITL,001,31017,
,,,,,,,,"('THIRD', 'ADD', 'INCREASE', 'x', 'y')",ADD,3,"(8, 15, 5)",5,5,7,7,increase,third,0,UBUxy,,,,,0,9,9,6,,,,,,space,1.4452556193,7,0,5.74797775643,2015_Jul_09_1535,360.822427182,KRITL,001,31017,
,,,,,,,,"('TIMES', 'THIRD', 'HALF', 'x', 'y')",third,3,"(3, 1, 5)",5,5,5,6,half,TIMES,0,BUUxy,,,,,0,10,10,5,,,,,,space,2.06999688264,5,1,6.48641292535,2015_Jul_09_1535,360.822427182,KRITL,001,31017,
,,,,,,,,"('TRIPLE', 'DECREASE', 'HALF', 'TIMES', 'x', 'y')",decrease,4,"(6, 3, 2, 6)",6,6,2,3,half,triple,TIMES,UUUBxy,,,,,0,11,11,17,,,,,,space,1.76292006532,9,0,8.93447961635,2015_Jul_09_1535,360.822427182,KRITL,001,31017,
,,,,,,,,"('THIRD', 'SUBTRACT', 'x', 'y')",SUBTRACT,2,"(3, 1)",1,1,2,5,0,third,0,UBxy,,,,,0,12,12,3,,,,,,space,1.25376808504,6,0,8.61519628059,2015_Jul_09_1535,360.822427182,KRITL,001,31017,
,,,,,,,,"('THIRD', 'DECREASE', 'TIMES', 'x', 'y')",decrease,3,"(25, 24, 8)",8,8,5,5,TIMES,thid,0,UUBxy,,,,,0,13,13,8,,,,,,space,2.30730402999,5,0,15.2210296221,2015_Jul_09_1535,360.822427182,KRITL,001,31017,
,,,,,,,,"('INCREASE', 'DIVIDE', 'TRIPLE', 'DOUBLE', 'x', 'y')",DIVIDE,4,"(6, 18, 3, 4)",4,4,6,3,triple,increase,double,UBUUxy,,,,,0,14,14,12,,,,,,space,5.79725449148,4,1,11.2065704823,2015_Jul_09_1535,360.822427182,KRITL,001,31017,
,,,,,,,,"('THIRD', 'TIMES', 'DECREASE', 'x', 'y')",TIMES,3,"(3, 15, 5)",5,5,5,4,decrease,third,0,UBUxy,,,,,0,15,15,7,,,,,,space,1.23563521833,4,0,10.4556235634,2015_Jul_09_1535,360.822427182,KRITL,001,31017,
,,,,,,,,"('THIRD', 'DOUBLE', 'ADD', 'INCREASE', 'x', 'y')",double,4,"(10, 12, 24, 8)",8,8,2,9,ADD,third,increase,UUBUxy,,,,,0,16,16,14,,,,,,space,1.97248366312,3,0,6.98135795805,2015_Jul_09_1535,360.822427182,KRITL,001,31017,
,,,,,,,,"('TRIPLE', 'HALF', 'ADD', 'DECREASE', 'x', 'y')",half,4,"(1, 4, 2, 6)",6,6,3,2,ADD,triple,decrease,UUBUxy,,,,,0,17,17,15,,,,,,space,4.83600690262,6,1,7.157517538,2015_Jul_09_1535,360.822427182,KRITL,001,31017,
,,,,,,,,"('DECREASE', 'ADD', 'THIRD', 'HALF', 'x', 'y')",ADD,4,"(3, 1, 7, 6)",6,6,6,6,third,decrease,half,UBUUxy,,,,,0,0,0,12,,,,,,space,7.37552461645,7,0,9.8311498909,2015_Jul_09_1535,360.822427182,KRITL,001,31017,
,,,,,,,,"('DECREASE', 'TRIPLE', 'SUBTRACT', 'DOUBLE', 'x', 'y')",triple,4,"(6, 3, 9, 8)",8,8,3,3,SUBTRACT,decrease,double,UUBUxy,,,,,0,1,1,15,,,,,,space,5.34874124557,8,1,6.77561043709,2015_Jul_09_1535,360.822427182,KRITL,001,31017,
,,,,,,,,"('THIRD', 'HALF', 'INCREASE', 'SUBTRACT', 'x', 'y')",half,4,"(5, 6, 3, 1)",1,1,2,7,increase,third,SUBTRACT,UUUBxy,,,,,0,2,2,17,,,,,,space,6.27521777677,1,1,4.040466087,2015_Jul_09_1535,360.822427182,KRITL,001,31017,
,,,,,,,,"('DOUBLE', 'SUBTRACT', 'INCREASE', 'x', 'y')",SUBTRACT,3,"(4, 1, 2)",2,2,3,3,increase,double,0,UBUxy,,,,,0,3,3,6,,,,,,space,3.87581872678,6,0,6.56608892838,2015_Jul_09_1535,360.822427182,KRITL,001,31017,
,,,,,,,,"('HALF', 'ADD', 'x', 'y')",ADD,2,"(12, 6)",6,6,8,4,0,half,0,UBxy,,,,,0,4,4,3,,,,,,space,1.2219918539,6,1,3.02826162166,2015_Jul_09_1535,360.822427182,KRITL,001,31017,
,,,,,,,,"('HALF', 'INCREASE', 'TIMES', 'x', 'y')",increase,3,"(9, 10, 5)",5,5,3,3,TIMES,half,0,UUBxy,,,,,0,5,5,9,,,,,,space,1.8458800434,5,1,3.39713000355,2015_Jul_09_1535,360.822427182,KRITL,001,31017,
,,,,,,,,"('ADD', 'DOUBLE', 'DECREASE', 'x', 'y')",double,3,"(1, 2, 7)",7,7,5,2,decrease,ADD,0,BUUxy,,,,,0,6,6,4,,,,,,space,1.94141815568,5,0,4.8860107864,2015_Jul_09_1535,360.822427182,KRITL,001,31017,
,,,,,,,,"('DECREASE', 'DOUBLE', 'TIMES', 'THIRD', 'x', 'y')",double,4,"(1, 3, 6, 5)",5,5,3,3,TIMES,decrease,third,UUBUxy,,,,,0,7,7,14,,,,,,space,2.48329046293,5,1,7.33424720255,2015_Jul_09_1535,360.822427182,KRITL,001,31017,
,,,,,,,,"('DECREASE', 'TIMES', 'x', 'y')",TIMES,2,"(9, 8)",8,8,3,3,0,decrease,0,UBxy,,,,,0,8,8,2,,,,,,space,0.966709930566,8,1,2.13464366115,2015_Jul_09_1535,360.822427182,KRITL,001,31017,
,,,,,,,,"('DECREASE', 'SUBTRACT', 'DOUBLE', 'THIRD', 'x', 'y')",SUBTRACT,4,"(3, 6, 4, 3)",3,3,2,9,double,decrease,third,UBUUxy,,,,,0,9,9,13,,,,,,space,5.71652352391,2,0,10.7581520224,2015_Jul_09_1535,360.822427182,KRITL,001,31017,
,,,,,,,,"('ADD', 'DECREASE', 'x', 'y')",decrease,2,"(2, 7)",7,7,5,3,0,ADD,0,BUxy,,,,,0,10,10,0,,,,,,space,1.19014923833,7,1,2.56505962793,2015_Jul_09_1535,360.822427182,KRITL,001,31017,
,,,,,,,,"('DOUBLE', 'THIRD', 'ADD', 'x', 'y')",third,3,"(9, 3, 6)",6,6,4,5,ADD,double,0,UUBxy,,,,,0,11,11,8,,,,,,space,1.30128768639,6,1,4.26241961581,2015_Jul_09_1535,360.822427182,KRITL,001,31017,
,,,,,,,,"('INCREASE', 'ADD', 'HALF', 'x', 'y')",ADD,3,"(1, 4, 5)",5,5,3,2,half,increase,0,UBUxy,,,,,0,12,12,7,,,,,,space,1.3003086875,5,1,3.74974960421,2015_Jul_09_1535,360.822427182,KRITL,001,31017,
,,,,,,,,"('ADD', 'TRIPLE', 'DOUBLE', 'DECREASE', 'x', 'y')",triple,4,"(1, 2, 6, 8)",8,8,2,2,double,ADD,decrease,BUUUxy,,,,,0,13,13,11,,,,,,space,4.96577883797,8,1,7.26853279851,2015_Jul_09_1535,360.822427182,KRITL,001,31017,
,,,,,,,,"('ADD', 'DECREASE', 'THIRD', 'DOUBLE', 'x', 'y')",decrease,4,"(18, 6, 5, 9)",9,9,4,9,third,ADD,double,BUUUxy,,,,,0,14,14,10,,,,,,space,4.9182065397,5,0,6.40649260033,2015_Jul_09_1535,360.822427182,KRITL,001,31017,
,,,,,,,,"('ADD', 'TRIPLE', 'HALF', 'x', 'y')",triple,3,"(2, 6, 8)",8,8,2,4,half,ADD,0,BUUxy,,,,,0,15,15,5,,,,,,space,1.38138697558,8,1,3.4794117657,2015_Jul_09_1535,360.822427182,KRITL,001,31017,
,,,,,,,,"('INCREASE', 'HALF', 'THIRD', 'TIMES', 'x', 'y')",half,4,"(12, 4, 2, 3)",3,3,4,3,third,increase,TIMES,UUUBxy,,,,,0,16,16,16,,,,,,space,1.78229370445,6,0,15.2691490785,2015_Jul_09_1535,360.822427182,KRITL,001,31017,
,,,,,,,,"('DIVIDE', 'DECREASE', 'x', 'y')",decrease,2,"(8, 2)",2,2,4,9,0,DIVIDE,0,BUxy,,,,,0,17,17,1,,,,,,space,1.22330722329,2,1,3.3330741832,2015_Jul_09_1535,360.822427182,KRITL,001,31017,
,,,,,,,,"('INCREASE', 'ADD', 'TRIPLE', 'x', 'y')",ADD,3,"(6, 8, 9)",9,9,2,2,triple,increase,0,UBUxy,,,,,0,0,0,6,,,,,,space,1.5349228179,9,1,4.08493884938,2015_Jul_09_1535,360.822427182,KRITL,001,31017,
,,,,,,,,"('THIRD', 'TIMES', 'HALF', 'INCREASE', 'x', 'y')",TIMES,4,"(8, 4, 12, 4)",4,4,3,7,half,third,increase,UBUUxy,,,,,0,1,1,13,,,,,,space,5.33232821408,6,0,15.3193387702,2015_Jul_09_1535,360.822427182,KRITL,001,31017,
,,,,,,,,"('DOUBLE', 'TIMES', 'x', 'y')",TIMES,2,"(4, 8)",8,8,2,2,0,double,0,UBxy,,,,,0,2,2,3,,,,,,space,0.998136445938,8,1,4.75907661341,2015_Jul_09_1535,360.822427182,KRITL,001,31017,
,,,,,,,,"('INCREASE', 'SUBTRACT', 'THIRD', 'x', 'y')",SUBTRACT,3,"(3, 1, 2)",2,2,2,9,third,increase,0,UBUxy,,,,,0,3,3,7,,,,,,space,5.04544046911,2,1,5.23736874107,2015_Jul_09_1535,360.822427182,KRITL,001,31017,
,,,,,,,,"('THIRD', 'INCREASE', 'SUBTRACT', 'x', 'y')",increase,3,"(2, 3, 1)",1,1,6,8,SUBTRACT,third,0,UUBxy,,,,,0,4,4,9,,,,,,space,1.55572029995,1,1,6.22718934237,2015_Jul_09_1535,360.822427182,KRITL,001,31017,
,,,,,,,,"('ADD', 'THIRD', 'x', 'y')",third,2,"(1, 7)",7,7,6,3,0,ADD,0,BUxy,,,,,0,5,5,0,,,,,,space,1.17432921811,7,1,3.44350053876,2015_Jul_09_1535,360.822427182,KRITL,001,31017,
,,,,,,,,"('THIRD', 'INCREASE', 'ADD', 'DOUBLE', 'x', 'y')",increase,4,"(16, 20, 21, 7)",7,7,4,8,ADD,third,double,UUBUxy,,,,,0,6,6,14,,,,,,space,4.07224026503,6,0,14.6767507091,2015_Jul_09_1535,360.822427182,KRITL,001,31017,
,,,,,,,,"('TRIPLE', 'DECREASE', 'HALF', 'SUBTRACT', 'x', 'y')",decrease,4,"(4, 2, 1, 3)",3,3,5,9,half,triple,SUBTRACT,UUUBxy,,,,,0,7,7,17,,,,,,space,5.91046317492,1,0,4.41984955373,2015_Jul_09_1535,360.822427182,KRITL,001,31017,
,,,,,,,,"('DECREASE', 'TRIPLE', 'HALF', 'ADD', 'x', 'y')",triple,4,"(6, 3, 9, 8)",8,8,2,4,half,decrease,ADD,UUUBxy,,,,,0,8,8,16,,,,,,space,4.58257724118,8,1,5.07949806546,2015_Jul_09_1535,360.822427182,KRITL,001,31017,
,,,,,,,,"('TRIPLE', 'DOUBLE', 'SUBTRACT', 'DECREASE', 'x', 'y')",double,4,"(4, 1, 2, 6)",6,6,3,5,SUBTRACT,triple,decrease,UUBUxy,,,,,0,9,9,15,,,,,,space,5.39858156373,4,0,15.2393010749,2015_Jul_09_1535,360.822427182,KRITL,001,31017,
,,,,,,,,"('SUBTRACT', 'INCREASE', 'x', 'y')",increase,2,"(6, 2)",2,2,4,5,0,SUBTRACT,0,BUxy,,,,,0,10,10,1,,,,,,space,1.01388494897,2,1,3.15876139019,2015_Jul_09_1535,360.822427182,KRITL,001,31017,
,,,,,,,,"('DECREASE', 'TRIPLE', 'DIVIDE', 'x', 'y')",triple,3,"(2, 6, 5)",5,5,4,8,DIVIDE,decrease,0,UUBxy,,,,,0,11,11,8,,,,,,space,2.69214607443,5,1,5.09472370573,2015_Jul_09_1535,360.822427182,KRITL,001,31017,
,,,,,,,,"('DIVIDE', 'TRIPLE', 'HALF', 'x', 'y')",triple,3,"(4, 12, 4)",4,4,3,8,half,DIVIDE,0,BUUxy,,,,,0,12,12,4,,,,,,space,1.26992481796,6,0,6.30965964991,2015_Jul_09_1535,360.822427182,KRITL,001,31017,
,,,,,,,,"('INCREASE', 'DIVIDE', 'TRIPLE', 'HALF', 'x', 'y')",DIVIDE,4,"(2, 6, 2, 3)",3,3,3,4,triple,increase,half,UBUUxy,,,,,0,13,13,12,,,,,,space,6.87106608227,3,1,7.15806093201,2015_Jul_09_1535,360.822427182,KRITL,001,31017,
,,,,,,,,"('TIMES', 'THIRD', 'DOUBLE', 'x', 'y')",third,3,"(6, 2, 4)",4,4,2,3,double,TIMES,0,BUUxy,,,,,0,14,14,5,,,,,,space,2.03670373355,6,0,4.56471880898,2015_Jul_09_1535,360.822427182,KRITL,001,31017,
,,,,,,,,"('TIMES', 'INCREASE', 'HALF', 'TRIPLE', 'x', 'y')",increase,4,"(6, 3, 4, 8)",8,8,2,2,half,TIMES,triple,BUUUxy,,,,,0,15,15,11,,,,,,space,6.80713071191,2,0,7.23924974672,2015_Jul_09_1535,360.822427182,KRITL,001,31017,
,,,,,,,,"('DIVIDE', 'DOUBLE', 'INCREASE', 'THIRD', 'x', 'y')",double,4,"(2, 3, 6, 2)",2,2,3,6,increase,DIVIDE,third,BUUUxy,,,,,0,16,16,10,,,,,,space,4.96647861175,1,0,10.1807476322,2015_Jul_09_1535,360.822427182,KRITL,001,31017,
,,,,,,,,"('DOUBLE', 'ADD', 'x', 'y')",ADD,2,"(4, 8)",8,8,2,2,0,double,0,UBxy,,,,,0,17,17,2,,,,,,space,2.31120017875,8,1,2.14964995912,2015_Jul_09_1535,360.822427182,KRITL,001,31017,
,,,,,,,,"('DOUBLE', 'DECREASE', 'SUBTRACT', 'x', 'y')",decrease,3,"(5, 4, 8)",8,8,2,7,SUBTRACT,double,0,UUBxy,,,,,0,0,0,8,,,,,,space,2.52324634808,8,1,2.8538362488,2015_Jul_09_1535,360.822427182,KRITL,001,31017,
,,,,,,,,"('DECREASE', 'THIRD', 'TIMES', 'HALF', 'x', 'y')",third,4,"(2, 12, 4, 3)",3,3,6,4,TIMES,decrease,half,UUBUxy,,,,,0,1,1,14,,,,,,space,5.5558455406,3,1,15.3684861583,2015_Jul_09_1535,360.822427182,KRITL,001,31017,
,,,,,,,,"('DECREASE', 'TIMES', 'DOUBLE', 'THIRD', 'x', 'y')",TIMES,4,"(1, 2, 8, 7)",7,7,4,3,double,decrease,third,UBUUxy,,,,,0,2,2,13,,,,,,space,3.30005786393,7,1,6.41021012719,2015_Jul_09_1535,360.822427182,KRITL,001,31017,
,,,,,,,,"('DIVIDE', 'DOUBLE', 'x', 'y')",double,2,"(12, 2)",2,2,6,6,0,DIVIDE,0,BUxy,,,,,0,3,3,1,,,,,,space,0.947436552437,2,1,2.82204564579,2015_Jul_09_1535,360.822427182,KRITL,001,31017,
,,,,,,,,"('DOUBLE', 'TRIPLE', 'SUBTRACT', 'x', 'y')",triple,3,"(1, 3, 6)",6,6,3,4,SUBTRACT,double,0,UUBxy,,,,,0,4,4,9,,,,,,space,1.4459885853,6,1,3.71779440885,2015_Jul_09_1535,360.822427182,KRITL,001,31017,
,,,,,,,,"('DIVIDE', 'INCREASE', 'DOUBLE', 'THIRD', 'x', 'y')",increase,4,"(2, 4, 5, 1)",1,1,5,6,double,DIVIDE,third,BUUUxy,,,,,0,5,5,11,,,,,,space,4.48606115649,4,0,11.6366504207,2015_Jul_09_1535,360.822427182,KRITL,001,31017,
,,,,,,,,"('DECREASE', 'ADD', 'DOUBLE', 'THIRD', 'x', 'y')",ADD,4,"(3, 6, 10, 9)",9,9,4,9,double,decrease ,third,UBUUxy,,,,,0,6,6,12,,,,,,space,1.43166597834,6,0,6.51798829238,2015_Jul_09_1535,360.822427182,KRITL,001,31017,
,,,,,,,,"('INCREASE', 'DIVIDE', 'THIRD', 'x', 'y')",DIVIDE,3,"(3, 1, 2)",2,2,3,9,third,increase,0,UBUxy,,,,,0,7,7,7,,,,,,space,1.30033024534,2,1,4.5019694611,2015_Jul_09_1535,360.822427182,KRITL,001,31017,
,,,,,,,,"('DOUBLE', 'SUBTRACT', 'x', 'y')",SUBTRACT,2,"(1, 2)",2,2,7,8,0,double,0,UBxy,,,,,0,8,8,2,,,,,,space,0.807288118231,2,1,1.39745097561,2015_Jul_09_1535,360.822427182,KRITL,001,31017,
,,,,,,,,"('ADD', 'THIRD', 'INCREASE', 'HALF', 'x', 'y')",third,4,"(2, 3, 1, 7)",7,7,6,4,increase,ADD,half,BUUUxy,,,,,0,9,9,10,,,,,,space,3.07878186664,7,1,5.17328623007,2015_Jul_09_1535,360.822427182,KRITL,001,31017,
,,,,,,,,"('DOUBLE', 'DECREASE', 'TRIPLE', 'DIVIDE', 'x', 'y')",decrease,4,"(1, 3, 2, 4)",4,4,4,4,triple,double,DIVIDE,UUUBxy,,,,,0,10,10,17,,,,,,space,4.56455900735,8,0,5.15804005851,2015_Jul_09_1535,360.822427182,KRITL,001,31017,
,,,,,,,,"('ADD', 'DOUBLE', 'x', 'y')",double,2,"(4, 8)",8,8,4,2,0,ADD,0,BUxy,,,,,0,11,11,0,,,,,,space,1.09461420565,5,0,2.26056187903,2015_Jul_09_1535,360.822427182,KRITL,001,31017,
,,,,,,,,"('DOUBLE', 'TRIPLE', 'DIVIDE', 'DECREASE', 'x', 'y')",triple,4,"(8, 1, 3, 6)",6,6,8,9,DIVIDE,double,decrease,UUBUxy,,,,,0,12,12,15,,,,,,space,4.6454946032,6,1,5.34870976431,2015_Jul_09_1535,360.822427182,KRITL,001,31017,
,,,,,,,,"('SUBTRACT', 'HALF', 'TRIPLE', 'x', 'y')",half,3,"(12, 6, 2)",2,2,4,4,triple,SUBTRACT,0,BUUxy,,,,,0,13,13,5,,,,,,space,1.383522911,5,0,3.44624043541,2015_Jul_09_1535,360.822427182,KRITL,001,31017,
,,,,,,,,"('DIVIDE', 'DOUBLE', 'THIRD', 'x', 'y')",double,3,"(2, 4, 1)",1,1,4,6,third,DIVIDE,0,BUUxy,,,,,0,14,14,4,,,,,,space,2.00280662329,3,0,5.73463585926,2015_Jul_09_1535,360.822427182,KRITL,001,31017,
,,,,,,,,"('DECREASE', 'HALF', 'TRIPLE', 'DIVIDE', 'x', 'y')",half,4,"(4, 12, 6, 5)",5,5,2,8,triple,decrease,DIVIDE,UUUBxy,,,,,0,15,15,16,,,,,,space,2.18128623557,3,0,10.1188886566,2015_Jul_09_1535,360.822427182,KRITL,001,31017,
,,,,,,,,"('HALF', 'SUBTRACT', 'TRIPLE', 'x', 'y')",SUBTRACT,3,"(9, 2, 1)",1,1,7,3,triple,half,0,UBUxy,,,,,0,16,16,6,,,,,,space,1.63702135219,6,0,10.9498219427,2015_Jul_09_1535,360.822427182,KRITL,001,31017,
,,,,,,,,"('HALF', 'TIMES', 'x', 'y')",TIMES,2,"(16, 8)",8,8,4,4,0,half,0,UBxy,,,,,0,17,17,3,,,,,,space,1.30372269388,6,0,1.90954542765,2015_Jul_09_1535,360.822427182,KRITL,001,31017,
,,,,,,,,"('HALF', 'SUBTRACT', 'DECREASE', 'TRIPLE', 'x', 'y')",SUBTRACT,4,"(15, 14, 10, 5)",5,5,4,5,decrease,half,triple,UBUUxy,,,,,0,0,0,12,,,,,,space,4.90994304972,None,0,,2015_Jul_09_1535,360.822427182,KRITL,001,31017,
,,,,,,,,"('TRIPLE', 'HALF', 'ADD', 'x', 'y')",half,3,"(6, 3, 9)",9,9,3,3,ADD,triple,0,UUBxy,,,,,0,1,1,8,,,,,,space,1.6896104638,9,1,3.07958190143,2015_Jul_09_1535,360.822427182,KRITL,001,31017,
,,,,,,,,"('DIVIDE', 'TRIPLE', 'DECREASE', 'x', 'y')",triple,3,"(6, 18, 9)",9,9,2,7,decrease,DIVIDE,0,BUUxy,,,,,0,2,2,4,,,,,,space,1.22102312057,6,0,6.62819564785,2015_Jul_09_1535,360.822427182,KRITL,001,31017,
,,,,,,,,"('TRIPLE', 'INCREASE', 'SUBTRACT', 'x', 'y')",increase,3,"(1, 2, 6)",6,6,2,3,SUBTRACT,triple,0,UUBxy,,,,,0,3,3,9,,,,,,space,1.17466148228,6,1,8.70931020787,2015_Jul_09_1535,360.822427182,KRITL,001,31017,
,,,,,,,,"('TIMES', 'HALF', 'INCREASE', 'THIRD', 'x', 'y')",half,4,"(1, 2, 1, 9)",9,9,9,3,increase,TIMES,third,BUUUxy,,,,,0,4,4,11,,,,,,space,2.34394616977,3,0,12.996614053,2015_Jul_09_1535,360.822427182,KRITL,001,31017,
,,,,,,,,"('INCREASE', 'DIVIDE', 'x', 'y')",DIVIDE,2,"(4, 5)",5,5,2,8,0,increase,0,UBxy,,,,,0,5,5,3,,,,,,space,0.775985817017,5,1,1.9880607301,2015_Jul_09_1535,360.822427182,KRITL,001,31017,
,,,,,,,,"('TRIPLE', 'INCREASE', 'DIVIDE', 'DOUBLE', 'x', 'y')",increase,4,"(16, 2, 3, 9)",9,9,8,8,DIVIDE,triple,double,UUBUxy,,,,,0,6,6,15,,,,,,space,3.54084129573,9,1,7.63939955644,2015_Jul_09_1535,360.822427182,KRITL,001,31017,
,,,,,,,,"('TRIPLE', 'DOUBLE', 'SUBTRACT', 'INCREASE', 'x', 'y')",double,4,"(5, 1, 2, 6)",6,6,4,4,SUBTRACT,triple,increase,UUBUxy,,,,,0,7,7,14,,,,,,space,1.87746738695,6,1,7.70386326459,2015_Jul_09_1535,360.822427182,KRITL,001,31017,
,,,,,,,,"('SUBTRACT', 'TRIPLE', 'x', 'y')",triple,2,"(12, 9)",9,9,3,4,0,SUBTRACT,0,BUxy,,,,,0,8,8,1,,,,,,space,0.964921315666,9,1,5.04502744862,2015_Jul_09_1535,360.822427182,KRITL,001,31017,
,,,,,,,,"('DIVIDE', 'DOUBLE', 'INCREASE', 'TRIPLE', 'x', 'y')",double,4,"(9, 10, 20, 5)",5,5,4,3,increase,DIVIDE,triple,BUUUxy,,,,,0,9,9,10,,,,,,space,3.31952457811,5,1,7.06258612435,2015_Jul_09_1535,360.822427182,KRITL,001,31017,
,,,,,,,,"('ADD', 'HALF', 'x', 'y')",half,2,"(2, 7)",7,7,5,4,0,ADD,0,BUxy,,,,,0,10,10,0,,,,,,space,3.66860630043,7,1,1.62287942029,2015_Jul_09_1535,360.822427182,KRITL,001,31017,
,,,,,,,,"('INCREASE', 'TIMES', 'TRIPLE', 'HALF', 'x', 'y')",TIMES,4,"(1, 3, 6, 7)",7,7,2,2,triple,increase,half,UBUUxy,,,,,0,11,11,13,,,,,,space,3.37979888264,7,1,6.87020855997,2015_Jul_09_1535,360.822427182,KRITL,001,31017,
,,,,,,,,"('HALF', 'TIMES', 'DECREASE', 'x', 'y')",TIMES,3,"(8, 16, 8)",8,8,2,9,decrease,half,0,UBUxy,,,,,0,12,12,6,,,,,,space,1.07867852598,8,1,6.90054075915,2015_Jul_09_1535,360.822427182,KRITL,001,31017,
,,,,,,,,"('SUBTRACT', 'INCREASE', 'HALF', 'x', 'y')",increase,3,"(4, 5, 3)",3,3,2,8,half,SUBTRACT,0,BUUxy,,,,,0,13,13,5,,,,,,space,1.14329074352,3,1,3.23879703239,2015_Jul_09_1535,360.822427182,KRITL,001,31017,
,,,,,,,,"('DOUBLE', 'DIVIDE', 'x', 'y')",DIVIDE,2,"(1, 2)",2,2,8,8,0,dpuble,0,UBxy,,,,,0,14,14,2,,,,,,space,1.3336825929,2,1,3.14136354253,2015_Jul_09_1535,360.822427182,KRITL,001,31017,
,,,,,,,,"('INCREASE', 'DIVIDE', 'TRIPLE', 'x', 'y')",DIVIDE,3,"(6, 2, 3)",3,3,3,2,triple,increase,0,UBUxy,,,,,0,15,15,7,,,,,,space,1.17317775654,2,0,7.57575128158,2015_Jul_09_1535,360.822427182,KRITL,001,31017,
,,,,,,,,"('THIRD', 'INCREASE', 'HALF', 'TIMES', 'x', 'y')",increase,4,"(28, 14, 15, 5)",5,5,4,7,half,third,TIMES,UUUBxy,,,,,0,16,16,17,,,,,,space,1.4117335467,6,0,11.4292802459,2015_Jul_09_1535,360.822427182,KRITL,001,31017,
,,,,,,,,"('DECREASE', 'THIRD', 'DOUBLE', 'ADD', 'x', 'y')",third,4,"(9, 18, 6, 5)",5,5,4,5,double,decrease,ADD,UUUBxy,,,,,0,17,17,16,,,,,,space,4.4553344149,5,1,7.44522071618,2015_Jul_09_1535,360.822427182,KRITL,001,31017,
,,,,,,,,"('TIMES', 'DECREASE', 'THIRD', 'DOUBLE', 'x', 'y')",decrease,4,"(6, 2, 1, 2)",2,2,2,3,third,TIMES,double,BUUUxy,,,,,0,0,0,11,,,,,,space,7.37748124555,4,0,6.35667999944,2015_Jul_09_1535,360.822427182,KRITL,001,31017,
,,,,,,,,"('DECREASE', 'HALF', 'TRIPLE', 'ADD', 'x', 'y')",half,4,"(4, 12, 6, 5)",5,5,2,2,triple,decrease,ADD,UUUBxy,,,,,0,1,1,16,,,,,,space,1.97449641093,5,1,5.66685190424,2015_Jul_09_1535,360.822427182,KRITL,001,31017,
,,,,,,,,"('INCREASE', 'HALF', 'TIMES', 'TRIPLE', 'x', 'y')",half,4,"(6, 12, 6, 7)",7,7,2,2,TIMES,increase,triple,UUBUxy,,,,,0,2,2,14,,,,,,space,1.79769933544,5,0,5.15752848797,2015_Jul_09_1535,360.822427182,KRITL,001,31017,
,,,,,,,,"('DOUBLE', 'TIMES', 'THIRD', 'x', 'y')",TIMES,3,"(1, 4, 8)",8,8,4,3,third,double,0,UBUxy,,,,,0,3,3,6,,,,,,space,1.11031035398,8,1,4.42136168107,2015_Jul_09_1535,360.822427182,KRITL,001,31017,
,,,,,,,,"('INCREASE', 'TRIPLE', 'HALF', 'ADD', 'x', 'y')",triple,4,"(4, 2, 6, 7)",7,7,2,2,half,increase,ADD,UUUBxy,,,,,0,4,4,17,,,,,,space,2.96410109184,5,0,3.43069382315,2015_Jul_09_1535,360.822427182,KRITL,001,31017,
,,,,,,,,"('INCREASE', 'TIMES', 'x', 'y')",TIMES,2,"(8, 9)",9,9,4,2,0,increase,0,UBxy,,,,,0,5,5,2,,,,,,space,0.949145779829,7,0,5.43144629383,2015_Jul_09_1535,360.822427182,KRITL,001,31017,
,,,,,,,,"('DECREASE', 'DIVIDE', 'TRIPLE', 'DOUBLE', 'x', 'y')",DIVIDE,4,"(6, 18, 2, 1)",1,1,9,3,triple,decrease,double,UBUUxy,,,,,0,6,6,12,,,,,,space,4.13271372271,2,0,9.26916481915,2015_Jul_09_1535,360.822427182,KRITL,001,31017,
,,,,,,,,"('ADD', 'DECREASE', 'HALF', 'x', 'y')",decrease,3,"(3, 2, 6)",6,6,4,6,half,ADD,0,BUUxy,,,,,0,7,7,4,,,,,,space,1.14091082825,6,1,4.88591326296,2015_Jul_09_1535,360.822427182,KRITL,001,31017,
,,,,,,,,"('DECREASE', 'HALF', 'DIVIDE', 'x', 'y')",half,3,"(4, 2, 1)",1,1,2,8,DIVIDE,decrease,0,UUBxy,,,,,0,8,8,8,,,,,,space,0.983018252649,1,1,2.6468171585,2015_Jul_09_1535,360.822427182,KRITL,001,31017,
,,,,,,,,"('TRIPLE', 'SUBTRACT', 'INCREASE', 'HALF', 'x', 'y')",SUBTRACT,4,"(3, 4, 1, 3)",3,3,3,6,increase,triple,half,UBUUxy,,,,,0,9,9,13,,,,,,space,1.79850826703,5,0,7.2358395044,2015_Jul_09_1535,360.822427182,KRITL,001,31017,
,,,,,,,,"('TIMES', 'THIRD', 'x', 'y')",third,2,"(1, 4)",4,4,4,3,0,TIMES,0,BUxy,,,,,0,10,10,1,,,,,,space,0.838549014763,4,1,2.2927240979,2015_Jul_09_1535,360.822427182,KRITL,001,31017,
,,,,,,,,"('TRIPLE', 'SUBTRACT', 'x', 'y')",SUBTRACT,2,"(2, 6)",6,6,6,8,0,triple,0,UBxy,,,,,0,11,11,3,,,,,,space,0.983025096415,6,1,5.6376913556,2015_Jul_09_1535,360.822427182,KRITL,001,31017,
,,,,,,,,"('THIRD', 'INCREASE', 'SUBTRACT', 'HALF', 'x', 'y')",increase,4,"(4, 2, 3, 1)",1,1,2,8,SUBTRACT,third,half,UUBUxy,,,,,0,12,12,15,,,,,,space,3.5731407319,3,0,10.8078096123,2015_Jul_09_1535,360.822427182,KRITL,001,31017,
,,,,,,,,"('INCREASE', 'DIVIDE', 'HALF', 'x', 'y')",DIVIDE,3,"(2, 1, 2)",2,2,2,4,half,increase,0,UBUxy,,,,,0,13,13,7,,,,,,space,1.01059070829,2,1,3.63849378569,2015_Jul_09_1535,360.822427182,KRITL,001,31017,
,,,,,,,,"('SUBTRACT', 'DOUBLE', 'DECREASE', 'x', 'y')",double,3,"(8, 16, 7)",7,7,9,9,decrease,SUBTRACT,0,BUUxy,,,,,0,14,14,5,,,,,,space,1.15837779775,5,0,9.4630664874,2015_Jul_09_1535,360.822427182,KRITL,001,31017,
,,,,,,,,"('SUBTRACT', 'THIRD', 'x', 'y')",third,2,"(3, 1)",1,1,2,9,0,SUBTRACT,0,BUxy,,,,,0,15,15,0,,,,,,space,0.70744015224,1,1,2.96836919856,2015_Jul_09_1535,360.822427182,KRITL,001,31017,
,,,,,,,,"('DIVIDE', 'DECREASE', 'THIRD', 'DOUBLE', 'x', 'y')",decrease,4,"(12, 4, 3, 1)",1,1,3,6,third,DIVIDE,double,BUUUxy,,,,,0,16,16,10,,,,,,space,2.91798617085,1,1,8.00428692705,2015_Jul_09_1535,360.822427182,KRITL,001,31017,
,,,,,,,,"('TRIPLE', 'HALF', 'TIMES', 'x', 'y')",half,3,"(6, 3, 9)",9,9,3,2,TIMES,triple,0,UUBxy,,,,,0,17,17,9,,,,,,space,1.30345236562,9,1,5.11042293371,2015_Jul_09_1535,360.822427182,KRITL,001,31017,
,,,,,,,,"('THIRD', 'TIMES', 'HALF', 'x', 'y')",TIMES,3,"(3, 18, 6)",6,6,6,6,half,third,0,UBUxy,,,,,0,0,0,7,,,,,,space,1.10604840657,3,0,6.3091429465,2015_Jul_09_1535,360.822427182,KRITL,001,31017,
,,,,,,,,"('TIMES', 'DOUBLE', 'x', 'y')",double,2,"(4, 8)",8,8,2,2,0,TIMES,0,BUxy,,,,,0,1,1,1,,,,,,space,0.758497974079,8,1,2.70809133537,2015_Jul_09_1535,360.822427182,KRITL,001,31017,
,,,,,,,,"('DECREASE', 'TRIPLE', 'DIVIDE', 'DOUBLE', 'x', 'y')",triple,4,"(6, 2, 6, 5)",5,5,3,3,DIVIDE,decrease,double,UUBUxy,,,,,0,2,2,14,,,,,,space,6.70852591371,4,0,4.16682641127,2015_Jul_09_1535,360.822427182,KRITL,001,31017,
,,,,,,,,"('DOUBLE', 'THIRD', 'TIMES', 'x', 'y')",third,3,"(12, 4, 8)",8,8,6,2,TIMES,double,0,UUBxy,,,,,0,3,3,9,,,,,,space,1.04619773041,8,1,6.23087128164,2015_Jul_09_1535,360.822427182,KRITL,001,31017,
,,,,,,,,"('TIMES', 'HALF', 'INCREASE', 'x', 'y')",half,3,"(6, 3, 9)",9,9,3,5,increase,TIMES,0,BUUxy,,,,,0,4,4,5,,,,,,space,0.935581118509,9,1,3.76361436408,2015_Jul_09_1535,360.822427182,KRITL,001,31017,
,,,,,,,,"('SUBTRACT', 'DOUBLE', 'TRIPLE', 'DECREASE', 'x', 'y')",double,4,"(2, 6, 12, 8)",8,8,4,3,triple,SUBTRACT,decrease,BUUUxy,,,,,0,5,5,10,,,,,,space,1.73584994109,8,1,6.4851088482,2015_Jul_09_1535,360.822427182,KRITL,001,31017,
,,,,,,,,"('INCREASE', 'ADD', 'HALF', 'TRIPLE', 'x', 'y')",ADD,4,"(6, 3, 6, 7)",7,7,3,2,half,increase,triple,UBUUxy,,,,,0,6,6,13,,,,,,space,1.30062692199,6,0,8.00686325802,2015_Jul_09_1535,360.822427182,KRITL,001,31017,
,,,,,,,,"('SUBTRACT', 'TRIPLE', 'DECREASE', 'x', 'y')",triple,3,"(4, 12, 3)",3,3,9,5,decrease,SUBTRACT,0,BUUxy,,,,,0,7,7,4,,,,,,space,1.1090740299,3,1,5.84709104552,2015_Jul_09_1535,360.822427182,KRITL,001,31017,
,,,,,,,,"('DOUBLE', 'DIVIDE', 'TRIPLE', 'INCREASE', 'x', 'y')",DIVIDE,4,"(5, 15, 3, 6)",6,6,5,4,triple,double,increase,UBUUxy,,,,,0,8,8,12,,,,,,space,1.66777649533,9,0,7.17488869489,2015_Jul_09_1535,360.822427182,KRITL,001,31017,
,,,,,,,,"('HALF', 'TRIPLE', 'INCREASE', 'SUBTRACT', 'x', 'y')",triple,4,"(1, 2, 6, 3)",3,3,2,3,increase,half,SUBTRACT,UUUBxy,,,,,0,9,9,17,,,,,,space,1.41234572046,3,1,4.69558950898,2015_Jul_09_1535,360.822427182,KRITL,001,31017,
,,,,,,,,"('SUBTRACT', 'TRIPLE', 'DECREASE', 'DOUBLE', 'x', 'y')",triple,4,"(4, 3, 9, 1)",1,1,8,2,decrease,SUBTRACT,double,BUUUxy,,,,,0,10,10,11,,,,,,space,3.04502436885,1,1,6.03978616005,2015_Jul_09_1535,360.822427182,KRITL,001,31017,
,,,,,,,,"('DOUBLE', 'DECREASE', 'ADD', 'x', 'y')",decrease,3,"(4, 3, 6)",6,6,2,2,ADD,double,0,UUBxy,,,,,0,11,11,8,,,,,,space,1.02924951742,6,1,3.23742075358,2015_Jul_09_1535,360.822427182,KRITL,001,31017,
,,,,,,,,"('THIRD', 'DECREASE', 'TIMES', 'HALF', 'x', 'y')",decrease,4,"(4, 16, 15, 5)",5,5,4,8,TIMES,third,half,UUBUxy,,,,,0,12,12,15,,,,,,space,1.3635589981,8,0,17.7669715673,2015_Jul_09_1535,360.822427182,KRITL,001,31017,
,,,,,,,,"('DECREASE', 'TRIPLE', 'HALF', 'SUBTRACT', 'x', 'y')",triple,4,"(4, 2, 6, 5)",5,5,2,6,half,decrease,SUBTRACT,UUUBxy,,,,,0,13,13,16,,,,,,space,3.02964542859,6,0,7.65511828917,2015_Jul_09_1535,360.822427182,KRITL,001,31017,
,,,,,,,,"('INCREASE', 'SUBTRACT', 'x', 'y')",SUBTRACT,2,"(3, 4)",4,4,3,6,0,increase,0,UBxy,,,,,0,14,14,2,,,,,,space,0.885113228229,4,1,1.4800222285,2015_Jul_09_1535,360.822427182,KRITL,001,31017,
,,,,,,,,"('THIRD', 'DIVIDE', 'x', 'y')",DIVIDE,2,"(3, 1)",1,1,2,6,0,third,0,UBxy,,,,,0,15,15,3,,,,,,space,0.70790073683,1,1,2.48644338013,2015_Jul_09_1535,360.822427182,KRITL,001,31017,
,,,,,,,,"('DIVIDE', 'THIRD', 'x', 'y')",third,2,"(3, 1)",1,1,3,9,0,DIVIDE,0,BUxy,,,,,0,16,16,0,,,,,,space,0.724261413619,1,1,2.99865109625,2015_Jul_09_1535,360.822427182,KRITL,001,31017,
,,,,,,,,"('THIRD', 'DIVIDE', 'DECREASE', 'x', 'y')",DIVIDE,3,"(6, 3, 1)",1,1,2,7,decrease,third,0,UBUxy,,,,,0,17,17,6,,,,,,space,1.19052975095,1,1,4.19804248121,2015_Jul_09_1535,360.822427182,KRITL,001,31017,
