operationc,operationb,operationa,correctresponse,valuey,operationd,condition,valuex,Rule,Operatora,Length,Intermediate,CorrectResponse,Result,Y,X,Operatorc,Operatorb,Operatord,Structure,practice_trials.thisRepN,practice_trials.thisTrialN,practice_trials.thisN,practice_trials.thisIndex,block.thisRepN,block.thisTrialN,block.thisN,block.thisIndex,practice_encoding.keys,practice_encoding.rt,practice_execution.keys,practice_execution.corr,practice_execution.rt,encoding.keys,encoding.rt,execution.keys,execution.corr,execution.rt,date,frameRate,expName,session,participant,
ADD,triple ,half,8,2,0,3,4,,,,,,,,,,,,,0,0,0,3,,,,,['space'],[5.082666973699816],8,1,8.40951186744,,,,,,2015_Jul_13_1550,287.784491609,KRITL,001,31019,
increase,DIVIDE,double,9,8,triple,4,8,,,,,,,,,,,,,0,1,1,5,,,,,['space'],[6.085922683938406],2,0,10.6275055198,,,,,,2015_Jul_13_1550,287.784491609,KRITL,001,31019,
0,decrease,TIMES,8,3,0,2,3,,,,,,,,,,,,,0,2,2,1,,,,,['space'],[10.000573590165004],8,1,2.37424569746,,,,,,2015_Jul_13_1550,287.784491609,KRITL,001,31019,
0,ADD,half,7,5,0,2,4,,,,,,,,,,,,,0,3,3,2,,,,,['space'],[3.9821942080161534],7,1,1.4992991981,,,,,,2015_Jul_13_1550,287.784491609,KRITL,001,31019,
increase,DIVIDE,triple,3,3,0,3,2,,,,,,,,,,,,,0,4,4,4,,,,,['space'],[4.979947442479897],3,1,4.53343953559,,,,,,2015_Jul_13_1550,287.784491609,KRITL,001,31019,
0,ADD,decrease,7,5,0,2,3,,,,,,,,,,,,,0,5,5,0,,,,,['space'],[4.496841054642573],7,1,2.47373716551,,,,,,2015_Jul_13_1550,287.784491609,KRITL,001,31019,
,,,,,,,,"('TIMES', 'THIRD', 'x', 'y')",third,2,"(1, 4)",4,4,4,3,0,TIMES,0,BUxy,,,,,0,0,0,1,,,,,,space,3.99079736025,4,1,2.32511362439,2015_Jul_13_1550,287.784491609,KRITL,001,31019,
,,,,,,,,"('DIVIDE', 'DECREASE', 'THIRD', 'DOUBLE', 'x', 'y')",decrease,4,"(12, 4, 3, 1)",1,1,3,6,third,DIVIDE,double,BUUUxy,,,,,0,1,1,10,,,,,,space,4.37092559395,5,0,9.57755873178,2015_Jul_13_1550,287.784491609,KRITL,001,31019,
,,,,,,,,"('SUBTRACT', 'THIRD', 'x', 'y')",third,2,"(3, 1)",1,1,2,9,0,SUBTRACT,0,BUxy,,,,,0,2,2,0,,,,,,space,3.64559968165,1,1,2.07001194428,2015_Jul_13_1550,287.784491609,KRITL,001,31019,
,,,,,,,,"('SUBTRACT', 'DOUBLE', 'DECREASE', 'x', 'y')",double,3,"(8, 16, 7)",7,7,9,9,decrease,SUBTRACT,0,BUUxy,,,,,0,3,3,5,,,,,,space,2.83378799423,7,1,6.23024237424,2015_Jul_13_1550,287.784491609,KRITL,001,31019,
,,,,,,,,"('INCREASE', 'DIVIDE', 'HALF', 'x', 'y')",DIVIDE,3,"(2, 1, 2)",2,2,2,4,half,increase,0,UBUxy,,,,,0,4,4,7,,,,,,space,3.40670516033,2,1,2.7036789211,2015_Jul_13_1550,287.784491609,KRITL,001,31019,
,,,,,,,,"('TIMES', 'DECREASE', 'THIRD', 'DOUBLE', 'x', 'y')",decrease,4,"(6, 2, 1, 2)",2,2,2,3,third,TIMES,double,BUUUxy,,,,,0,5,5,11,,,,,,space,8.26439286064,1,0,5.92066327878,2015_Jul_13_1550,287.784491609,KRITL,001,31019,
,,,,,,,,"('THIRD', 'INCREASE', 'SUBTRACT', 'HALF', 'x', 'y')",increase,4,"(4, 2, 3, 1)",1,1,2,8,SUBTRACT,third,half,UUBUxy,,,,,0,6,6,15,,,,,,space,10.1327670458,1,1,4.33256609674,2015_Jul_13_1550,287.784491609,KRITL,001,31019,
,,,,,,,,"('TRIPLE', 'SUBTRACT', 'INCREASE', 'HALF', 'x', 'y')",SUBTRACT,4,"(3, 4, 1, 3)",3,3,3,6,increase,triple,half,UBUUxy,,,,,0,7,7,13,,,,,,space,6.10875045188,3,1,3.88601374446,2015_Jul_13_1550,287.784491609,KRITL,001,31019,
,,,,,,,,"('DECREASE', 'HALF', 'DIVIDE', 'x', 'y')",half,3,"(4, 2, 1)",1,1,2,8,DIVIDE,decrease,0,UUBxy,,,,,0,8,8,8,,,,,,space,6.6484263367,3,0,3.19577167119,2015_Jul_13_1550,287.784491609,KRITL,001,31019,
,,,,,,,,"('TRIPLE', 'SUBTRACT', 'x', 'y')",SUBTRACT,2,"(2, 6)",6,6,6,8,0,triple,0,UBxy,,,,,0,9,9,3,,,,,,space,5.89858863229,6,1,2.64130737958,2015_Jul_13_1550,287.784491609,KRITL,001,31019,
,,,,,,,,"('ADD', 'DECREASE', 'HALF', 'x', 'y')",decrease,3,"(3, 2, 6)",6,6,4,6,half,ADD,0,BUUxy,,,,,0,10,10,4,,,,,,space,1.97120395489,6,1,3.57388131547,2015_Jul_13_1550,287.784491609,KRITL,001,31019,
,,,,,,,,"('INCREASE', 'TIMES', 'x', 'y')",TIMES,2,"(8, 9)",9,9,4,2,0,increase,0,UBxy,,,,,0,11,11,2,,,,,,space,2.40252869617,9,1,1.32692713517,2015_Jul_13_1550,287.784491609,KRITL,001,31019,
,,,,,,,,"('TRIPLE', 'HALF', 'TIMES', 'x', 'y')",half,3,"(6, 3, 9)",9,9,3,2,TIMES,triple,0,UUBxy,,,,,0,12,12,9,,,,,,space,3.36382903444,9,1,2.43764438177,2015_Jul_13_1550,287.784491609,KRITL,001,31019,
,,,,,,,,"('INCREASE', 'TRIPLE', 'HALF', 'ADD', 'x', 'y')",triple,4,"(4, 2, 6, 7)",7,7,2,2,half,increase,ADD,UUUBxy,,,,,0,13,13,17,,,,,,space,5.05880471371,7,1,4.41364493617,2015_Jul_13_1550,287.784491609,KRITL,001,31019,
,,,,,,,,"('INCREASE', 'HALF', 'TIMES', 'TRIPLE', 'x', 'y')",half,4,"(6, 12, 6, 7)",7,7,2,2,TIMES,increase,triple,UUBUxy,,,,,0,14,14,14,,,,,,space,7.57338681706,7,1,9.8372606819,2015_Jul_13_1550,287.784491609,KRITL,001,31019,
,,,,,,,,"('DECREASE', 'DIVIDE', 'TRIPLE', 'DOUBLE', 'x', 'y')",DIVIDE,4,"(6, 18, 2, 1)",1,1,9,3,triple,decrease,double,UBUUxy,,,,,0,15,15,12,,,,,,space,6.96189807594,3,0,18.662328286,2015_Jul_13_1550,287.784491609,KRITL,001,31019,
,,,,,,,,"('DOUBLE', 'TIMES', 'THIRD', 'x', 'y')",TIMES,3,"(1, 4, 8)",8,8,4,3,third,double,0,UBUxy,,,,,0,16,16,6,,,,,,space,10.8436433158,8,1,7.66075275047,2015_Jul_13_1550,287.784491609,KRITL,001,31019,
,,,,,,,,"('DECREASE', 'HALF', 'TRIPLE', 'ADD', 'x', 'y')",half,4,"(4, 12, 6, 5)",5,5,2,2,triple,decrease,ADD,UUUBxy,,,,,0,17,17,16,,,,,,space,6.79642799275,5,1,5.06804864912,2015_Jul_13_1550,287.784491609,KRITL,001,31019,
,,,,,,,,"('TRIPLE', 'HALF', 'ADD', 'DECREASE', 'x', 'y')",half,4,"(1, 4, 2, 6)",6,6,3,2,ADD,triple,decrease,UUBUxy,,,,,0,0,0,15,,,,,,space,7.41904347279,6,1,4.42473072931,2015_Jul_13_1550,287.784491609,KRITL,001,31019,
,,,,,,,,"('THIRD', 'ADD', 'x', 'y')",ADD,2,"(9, 3)",3,3,5,4,0,third,0,UBxy,,,,,0,1,1,2,,,,,,space,2.86755842029,3,1,1.39679979393,2015_Jul_13_1550,287.784491609,KRITL,001,31019,
,,,,,,,,"('SUBTRACT', 'HALF', 'INCREASE', 'TRIPLE', 'x', 'y')",half,4,"(15, 16, 8, 3)",3,3,5,5,increase,SUBTRACT,triple,BUUUxy,,,,,0,2,2,10,,,,,,space,6.27149186982,3,1,7.35508064734,2015_Jul_13_1550,287.784491609,KRITL,001,31019,
,,,,,,,,"('TIMES', 'INCREASE', 'THIRD', 'DOUBLE', 'x', 'y')",increase,4,"(6, 2, 3, 9)",9,9,3,3,third,TIMES,double,BUUUxy,,,,,0,3,3,11,,,,,,space,7.73425873014,9,1,3.44870777737,2015_Jul_13_1550,287.784491609,KRITL,001,31019,
,,,,,,,,"('TIMES', 'THIRD', 'HALF', 'x', 'y')",third,3,"(3, 1, 5)",5,5,5,6,half,TIMES,0,BUUxy,,,,,0,4,4,5,,,,,,space,1.81755178852,5,1,3.47017208749,2015_Jul_13_1550,287.784491609,KRITL,001,31019,
,,,,,,,,"('THIRD', 'DOUBLE', 'ADD', 'INCREASE', 'x', 'y')",double,4,"(10, 12, 24, 8)",8,8,2,9,ADD,third,increase,UUBUxy,,,,,0,5,5,14,,,,,,space,4.85283020715,8,1,4.2651918272,2015_Jul_13_1550,287.784491609,KRITL,001,31019,
,,,,,,,,"('THIRD', 'INCREASE', 'HALF', 'DIVIDE', 'x', 'y')",increase,4,"(4, 2, 3, 1)",1,1,2,8,half,third,DIVIDE,UUUBxy,,,,,0,6,6,16,,,,,,space,5.72114839818,1,1,4.40964135394,2015_Jul_13_1550,287.784491609,KRITL,001,31019,
,,,,,,,,"('THIRD', 'SUBTRACT', 'x', 'y')",SUBTRACT,2,"(3, 1)",1,1,2,5,0,third,0,UBxy,,,,,0,7,7,3,,,,,,space,1.27849078953,1,1,2.51382443239,2015_Jul_13_1550,287.784491609,KRITL,001,31019,
,,,,,,,,"('THIRD', 'DECREASE', 'TIMES', 'x', 'y')",decrease,3,"(25, 24, 8)",8,8,5,5,TIMES,thid,0,UUBxy,,,,,0,8,8,8,,,,,,space,4.0534289247,8,1,3.43043583405,2015_Jul_13_1550,287.784491609,KRITL,001,31019,
,,,,,,,,"('TIMES', 'DECREASE', 'x', 'y')",decrease,2,"(2, 4)",4,4,2,3,0,TIMES,0,BUxy,,,,,0,9,9,0,,,,,,space,1.52237054065,4,1,1.48105665174,2015_Jul_13_1550,287.784491609,KRITL,001,31019,
,,,,,,,,"('TIMES', 'DECREASE', 'HALF', 'x', 'y')",decrease,3,"(4, 3, 9)",9,9,3,8,half,TIMES,0,BUUxy,,,,,0,10,10,4,,,,,,space,2.01274566998,9,1,2.85587663925,2015_Jul_13_1550,287.784491609,KRITL,001,31019,
,,,,,,,,"('TRIPLE', 'HALF', 'DIVIDE', 'x', 'y')",half,3,"(2, 1, 3)",3,3,2,4,DIVIDE,triple,0,UUBxy,,,,,0,11,11,9,,,,,,space,2.3362162158,3,1,9.63741823542,2015_Jul_13_1550,287.784491609,KRITL,001,31019,
,,,,,,,,"('TIMES', 'INCREASE', 'x', 'y')",increase,2,"(3, 6)",6,6,2,2,0,TIMES,0,BUxy,,,,,0,12,12,1,,,,,,space,1.40765566111,6,1,1.12901543721,2015_Jul_13_1550,287.784491609,KRITL,001,31019,
,,,,,,,,"('THIRD', 'ADD', 'INCREASE', 'x', 'y')",ADD,3,"(8, 15, 5)",5,5,7,7,increase,third,0,UBUxy,,,,,0,13,13,6,,,,,,space,2.09768880619,5,1,3.26175553579,2015_Jul_13_1550,287.784491609,KRITL,001,31019,
,,,,,,,,"('THIRD', 'TIMES', 'DECREASE', 'x', 'y')",TIMES,3,"(3, 15, 5)",5,5,5,4,decrease,third,0,UBUxy,,,,,0,14,14,7,,,,,,space,3.72687275085,5,1,2.36740881088,2015_Jul_13_1550,287.784491609,KRITL,001,31019,
,,,,,,,,"('TRIPLE', 'DECREASE', 'HALF', 'TIMES', 'x', 'y')",decrease,4,"(6, 3, 2, 6)",6,6,2,3,half,triple,TIMES,UUUBxy,,,,,0,15,15,17,,,,,,space,5.63466507266,6,1,4.6748009845,2015_Jul_13_1550,287.784491609,KRITL,001,31019,
,,,,,,,,"('INCREASE', 'DIVIDE', 'TRIPLE', 'DOUBLE', 'x', 'y')",DIVIDE,4,"(6, 18, 3, 4)",4,4,6,3,triple,increase,double,UBUUxy,,,,,0,16,16,12,,,,,,space,4.29366905568,4,1,7.98299317469,2015_Jul_13_1550,287.784491609,KRITL,001,31019,
,,,,,,,,"('TRIPLE', 'SUBTRACT', 'DOUBLE', 'DECREASE', 'x', 'y')",SUBTRACT,4,"(2, 4, 1, 3)",3,3,3,3,double,triple,decrease,UBUUxy,,,,,0,17,17,13,,,,,,space,6.58504480054,3,1,4.1253100239,2015_Jul_13_1550,287.784491609,KRITL,001,31019,
,,,,,,,,"('HALF', 'TIMES', 'DECREASE', 'x', 'y')",TIMES,3,"(8, 16, 8)",8,8,2,9,decrease,half,0,UBUxy,,,,,0,0,0,6,,,,,,space,5.5601620471,5,0,3.4870263288,2015_Jul_13_1550,287.784491609,KRITL,001,31019,
,,,,,,,,"('SUBTRACT', 'TRIPLE', 'x', 'y')",triple,2,"(12, 9)",9,9,3,4,0,SUBTRACT,0,BUxy,,,,,0,1,1,1,,,,,,space,5.60605450819,9,1,3.64542155026,2015_Jul_13_1550,287.784491609,KRITL,001,31019,
,,,,,,,,"('ADD', 'HALF', 'x', 'y')",half,2,"(2, 7)",7,7,5,4,0,ADD,0,BUxy,,,,,0,2,2,0,,,,,,space,2.34136347868,7,1,1.22823148407,2015_Jul_13_1550,287.784491609,KRITL,001,31019,
,,,,,,,,"('DIVIDE', 'TRIPLE', 'DECREASE', 'x', 'y')",triple,3,"(6, 18, 9)",9,9,2,7,decrease,DIVIDE,0,BUUxy,,,,,0,3,3,4,,,,,,space,1.7012690726,9,1,4.7906721434,2015_Jul_13_1550,287.784491609,KRITL,001,31019,
,,,,,,,,"('TIMES', 'HALF', 'INCREASE', 'THIRD', 'x', 'y')",half,4,"(1, 2, 1, 9)",9,9,9,3,increase,TIMES,third,BUUUxy,,,,,0,4,4,11,,,,,,space,6.73999358166,9,1,2.97999538743,2015_Jul_13_1550,287.784491609,KRITL,001,31019,
,,,,,,,,"('HALF', 'SUBTRACT', 'DECREASE', 'TRIPLE', 'x', 'y')",SUBTRACT,4,"(15, 14, 10, 5)",5,5,4,5,decrease,half,triple,UBUUxy,,,,,0,5,5,12,,,,,,space,6.18050836399,5,1,4.23034351366,2015_Jul_13_1550,287.784491609,KRITL,001,31019,
,,,,,,,,"('TRIPLE', 'INCREASE', 'SUBTRACT', 'x', 'y')",increase,3,"(1, 2, 6)",6,6,2,3,SUBTRACT,triple,0,UUBxy,,,,,0,6,6,9,,,,,,space,2.60805069987,6,1,2.29741996422,2015_Jul_13_1550,287.784491609,KRITL,001,31019,
,,,,,,,,"('DECREASE', 'THIRD', 'DOUBLE', 'ADD', 'x', 'y')",third,4,"(9, 18, 6, 5)",5,5,4,5,double,decrease,ADD,UUUBxy,,,,,0,7,7,16,,,,,,space,4.46816119738,5,1,4.06446362322,2015_Jul_13_1550,287.784491609,KRITL,001,31019,
,,,,,,,,"('TRIPLE', 'DOUBLE', 'SUBTRACT', 'INCREASE', 'x', 'y')",double,4,"(5, 1, 2, 6)",6,6,4,4,SUBTRACT,triple,increase,UUBUxy,,,,,0,8,8,14,,,,,,space,7.9028504875,6,1,3.25974359573,2015_Jul_13_1550,287.784491609,KRITL,001,31019,
,,,,,,,,"('TRIPLE', 'HALF', 'ADD', 'x', 'y')",half,3,"(6, 3, 9)",9,9,3,3,ADD,triple,0,UUBxy,,,,,0,9,9,8,,,,,,space,2.90218765673,9,1,2.71678925306,2015_Jul_13_1550,287.784491609,KRITL,001,31019,
,,,,,,,,"('DIVIDE', 'DOUBLE', 'INCREASE', 'TRIPLE', 'x', 'y')",double,4,"(9, 10, 20, 5)",5,5,4,3,increase,DIVIDE,triple,BUUUxy,,,,,0,10,10,10,,,,,,space,7.29179955076,5,1,4.36770068039,2015_Jul_13_1550,287.784491609,KRITL,001,31019,
,,,,,,,,"('DOUBLE', 'DIVIDE', 'x', 'y')",DIVIDE,2,"(1, 2)",2,2,8,8,0,dpuble,0,UBxy,,,,,0,11,11,2,,,,,,space,3.18821490981,2,1,1.49931004702,2015_Jul_13_1550,287.784491609,KRITL,001,31019,
,,,,,,,,"('THIRD', 'INCREASE', 'HALF', 'TIMES', 'x', 'y')",increase,4,"(28, 14, 15, 5)",5,5,4,7,half,third,TIMES,UUUBxy,,,,,0,12,12,17,,,,,,space,3.65975465457,6,0,4.61724459054,2015_Jul_13_1550,287.784491609,KRITL,001,31019,
,,,,,,,,"('INCREASE', 'DIVIDE', 'x', 'y')",DIVIDE,2,"(4, 5)",5,5,2,8,0,increase,0,UBxy,,,,,0,13,13,3,,,,,,space,3.75904279388,5,1,1.39499433234,2015_Jul_13_1550,287.784491609,KRITL,001,31019,
,,,,,,,,"('TRIPLE', 'INCREASE', 'DIVIDE', 'DOUBLE', 'x', 'y')",increase,4,"(16, 2, 3, 9)",9,9,8,8,DIVIDE,triple,double,UUBUxy,,,,,0,14,14,15,,,,,,space,8.79776170355,9,1,4.16648742702,2015_Jul_13_1550,287.784491609,KRITL,001,31019,
,,,,,,,,"('INCREASE', 'DIVIDE', 'TRIPLE', 'x', 'y')",DIVIDE,3,"(6, 2, 3)",3,3,3,2,triple,increase,0,UBUxy,,,,,0,15,15,7,,,,,,space,1.74892919924,3,1,3.14669139276,2015_Jul_13_1550,287.784491609,KRITL,001,31019,
,,,,,,,,"('SUBTRACT', 'INCREASE', 'HALF', 'x', 'y')",increase,3,"(4, 5, 3)",3,3,2,8,half,SUBTRACT,0,BUUxy,,,,,0,16,16,5,,,,,,space,1.78102400014,3,1,3.19226678694,2015_Jul_13_1550,287.784491609,KRITL,001,31019,
,,,,,,,,"('INCREASE', 'TIMES', 'TRIPLE', 'HALF', 'x', 'y')",TIMES,4,"(1, 3, 6, 7)",7,7,2,2,triple,increase,half,UBUUxy,,,,,0,17,17,13,,,,,,space,5.51575518097,7,1,3.74640246294,2015_Jul_13_1550,287.784491609,KRITL,001,31019,
,,,,,,,,"('ADD', 'THIRD', 'INCREASE', 'HALF', 'x', 'y')",third,4,"(2, 3, 1, 7)",7,7,6,4,increase,ADD,half,BUUUxy,,,,,0,0,0,10,,,,,,space,4.33763041825,7,1,2.62729414186,2015_Jul_13_1550,287.784491609,KRITL,001,31019,
,,,,,,,,"('SUBTRACT', 'HALF', 'TRIPLE', 'x', 'y')",half,3,"(12, 6, 2)",2,2,4,4,triple,SUBTRACT,0,BUUxy,,,,,0,1,1,5,,,,,,space,1.14843666065,2,1,5.89560519357,2015_Jul_13_1550,287.784491609,KRITL,001,31019,
,,,,,,,,"('DECREASE', 'THIRD', 'TIMES', 'HALF', 'x', 'y')",third,4,"(2, 12, 4, 3)",3,3,6,4,TIMES,decrease,half,UUBUxy,,,,,0,2,2,14,,,,,,space,6.60305042169,3,1,5.11306690151,2015_Jul_13_1550,287.784491609,KRITL,001,31019,
,,,,,,,,"('ADD', 'DOUBLE', 'x', 'y')",double,2,"(4, 8)",8,8,4,2,0,ADD,0,BUxy,,,,,0,3,3,0,,,,,,space,0.755020313663,8,1,1.3549259635,2015_Jul_13_1550,287.784491609,KRITL,001,31019,
,,,,,,,,"('DECREASE', 'HALF', 'TRIPLE', 'DIVIDE', 'x', 'y')",half,4,"(4, 12, 6, 5)",5,5,2,8,triple,decrease,DIVIDE,UUUBxy,,,,,0,4,4,16,,,,,,space,4.57937084266,5,1,4.00029361935,2015_Jul_13_1550,287.784491609,KRITL,001,31019,
,,,,,,,,"('DECREASE', 'TIMES', 'DOUBLE', 'THIRD', 'x', 'y')",TIMES,4,"(1, 2, 8, 7)",7,7,4,3,double,decrease,third,UBUUxy,,,,,0,5,5,13,,,,,,space,7.57426417555,7,1,3.96492665989,2015_Jul_13_1550,287.784491609,KRITL,001,31019,
,,,,,,,,"('DOUBLE', 'TRIPLE', 'DIVIDE', 'DECREASE', 'x', 'y')",triple,4,"(8, 1, 3, 6)",6,6,8,9,DIVIDE,double,decrease,UUBUxy,,,,,0,6,6,15,,,,,,space,3.75376919418,4,0,7.48260174051,2015_Jul_13_1550,287.784491609,KRITL,001,31019,
,,,,,,,,"('DOUBLE', 'SUBTRACT', 'x', 'y')",SUBTRACT,2,"(1, 2)",2,2,7,8,0,double,0,UBxy,,,,,0,7,7,2,,,,,,space,1.21292268153,2,1,1.26069409656,2015_Jul_13_1550,287.784491609,KRITL,001,31019,
,,,,,,,,"('INCREASE', 'DIVIDE', 'THIRD', 'x', 'y')",DIVIDE,3,"(3, 1, 2)",2,2,3,9,third,increase,0,UBUxy,,,,,0,8,8,7,,,,,,space,2.58291457285,2,1,2.14356166933,2015_Jul_13_1550,287.784491609,KRITL,001,31019,
,,,,,,,,"('HALF', 'TIMES', 'x', 'y')",TIMES,2,"(16, 8)",8,8,4,4,0,half,0,UBxy,,,,,0,9,9,3,,,,,,space,0.962671495217,8,1,3.40780929511,2015_Jul_13_1550,287.784491609,KRITL,001,31019,
,,,,,,,,"('DOUBLE', 'TRIPLE', 'SUBTRACT', 'x', 'y')",triple,3,"(1, 3, 6)",6,6,3,4,SUBTRACT,double,0,UUBxy,,,,,0,10,10,9,,,,,,space,2.58358195325,6,1,2.92882197746,2015_Jul_13_1550,287.784491609,KRITL,001,31019,
,,,,,,,,"('DIVIDE', 'INCREASE', 'DOUBLE', 'THIRD', 'x', 'y')",increase,4,"(2, 4, 5, 1)",1,1,5,6,double,DIVIDE,third,BUUUxy,,,,,0,11,11,11,,,,,,space,3.39203224139,1,1,4.52229984797,2015_Jul_13_1550,287.784491609,KRITL,001,31019,
,,,,,,,,"('DIVIDE', 'DOUBLE', 'THIRD', 'x', 'y')",double,3,"(2, 4, 1)",1,1,4,6,third,DIVIDE,0,BUUxy,,,,,0,12,12,4,,,,,,space,1.21566429548,1,1,3.3582607655,2015_Jul_13_1550,287.784491609,KRITL,001,31019,
,,,,,,,,"('DOUBLE', 'DECREASE', 'SUBTRACT', 'x', 'y')",decrease,3,"(5, 4, 8)",8,8,2,7,SUBTRACT,double,0,UUBxy,,,,,0,13,13,8,,,,,,space,2.00344644039,8,1,2.71252214827,2015_Jul_13_1550,287.784491609,KRITL,001,31019,
,,,,,,,,"('HALF', 'SUBTRACT', 'TRIPLE', 'x', 'y')",SUBTRACT,3,"(9, 2, 1)",1,1,7,3,triple,half,0,UBUxy,,,,,0,14,14,6,,,,,,space,1.61099564261,1,1,3.31931507948,2015_Jul_13_1550,287.784491609,KRITL,001,31019,
,,,,,,,,"('DECREASE', 'ADD', 'DOUBLE', 'THIRD', 'x', 'y')",ADD,4,"(3, 6, 10, 9)",9,9,4,9,double,decrease ,third,UBUUxy,,,,,0,15,15,12,,,,,,space,4.47826079349,9,1,5.58099117357,2015_Jul_13_1550,287.784491609,KRITL,001,31019,
,,,,,,,,"('DIVIDE', 'DOUBLE', 'x', 'y')",double,2,"(12, 2)",2,2,6,6,0,DIVIDE,0,BUxy,,,,,0,16,16,1,,,,,,space,1.09377726435,2,1,1.76749196224,2015_Jul_13_1550,287.784491609,KRITL,001,31019,
,,,,,,,,"('DOUBLE', 'DECREASE', 'TRIPLE', 'DIVIDE', 'x', 'y')",decrease,4,"(1, 3, 2, 4)",4,4,4,4,triple,double,DIVIDE,UUUBxy,,,,,0,17,17,17,,,,,,space,5.12432907626,4,1,4.05645610881,2015_Jul_13_1550,287.784491609,KRITL,001,31019,
,,,,,,,,"('DOUBLE', 'ADD', 'INCREASE', 'THIRD', 'x', 'y')",ADD,4,"(1, 2, 4, 8)",8,8,2,3,increase,double,third,UBUUxy,,,,,0,0,0,12,,,,,,space,5.222060228,8,1,3.31963704585,2015_Jul_13_1550,287.784491609,KRITL,001,31019,
,,,,,,,,"('DIVIDE', 'INCREASE', 'x', 'y')",increase,2,"(4, 2)",2,2,2,3,0,DIVIDE,0,BUxy,,,,,0,1,1,0,,,,,,space,0.909028042923,2,1,1.68600156577,2015_Jul_13_1550,287.784491609,KRITL,001,31019,
,,,,,,,,"('SUBTRACT', 'DECREASE', 'TRIPLE', 'DOUBLE', 'x', 'y')",decrease,4,"(6, 18, 17, 8)",8,8,9,3,triple,SUBTRACT,double,BUUUxy,,,,,0,2,2,11,,,,,,space,7.22422790184,8,1,13.7508595978,2015_Jul_13_1550,287.784491609,KRITL,001,31019,
,,,,,,,,"('INCREASE', 'TRIPLE', 'DIVIDE', 'x', 'y')",triple,3,"(2, 6, 7)",7,7,3,6,DIVIDE,increase,0,UUBxy,,,,,0,3,3,8,,,,,,space,2.89195297466,5,0,4.95315598813,2015_Jul_13_1550,287.784491609,KRITL,001,31019,
,,,,,,,,"('THIRD', 'INCREASE', 'DIVIDE', 'DOUBLE', 'x', 'y')",increse,4,"(18, 2, 3, 1)",1,1,9,9,DIVIDE,third,double,UUBUxy,,,,,0,4,4,15,,,,,,space,4.49686345225,1,1,4.59877946734,2015_Jul_13_1550,287.784491609,KRITL,001,31019,
,,,,,,,,"('ADD', 'HALF', 'THIRD', 'x', 'y')",half,3,"(2, 1, 9)",9,9,8,6,third,ADD,0,BUUxy,,,,,0,5,5,4,,,,,,space,0.998404866492,9,1,3.99128415954,2015_Jul_13_1550,287.784491609,KRITL,001,31019,
,,,,,,,,"('INCREASE', 'ADD', 'x', 'y')",ADD,2,"(5, 6)",6,6,2,3,0,increase,0,UBxy,,,,,0,6,6,3,,,,,,space,0.686618201376,6,1,2.14900220162,2015_Jul_13_1550,287.784491609,KRITL,001,31019,
,,,,,,,,"('ADD', 'DOUBLE', 'DECREASE', 'THIRD', 'x', 'y')",double,4,"(2, 1, 2, 8)",8,8,6,6,decrease,ADD,third,BUUUxy,,,,,0,7,7,10,,,,,,space,2.2348289956,8,1,3.70401628589,2015_Jul_13_1550,287.784491609,KRITL,001,31019,
,,,,,,,,"('THIRD', 'TIMES', 'DOUBLE', 'DECREASE', 'x', 'y')",TIMES,4,"(1, 2, 6, 2)",2,2,3,2,double,third,decrease,UBUUxy,,,,,0,8,8,13,,,,,,space,2.192400823,2,1,3.97752114566,2015_Jul_13_1550,287.784491609,KRITL,001,31019,
,,,,,,,,"('DECREASE', 'DIVIDE', 'x', 'y')",DIVIDE,2,"(2, 1)",1,1,4,8,0,decrease,0,UBxy,,,,,0,9,9,2,,,,,,space,0.806674573512,1,1,2.64555558626,2015_Jul_13_1550,287.784491609,KRITL,001,31019,
,,,,,,,,"('HALF', 'ADD', 'TRIPLE', 'x', 'y')",ADD,3,"(9, 12, 6)",6,6,3,3,triple,half,0,UBUxy,,,,,0,10,10,6,,,,,,space,1.01620470901,6,1,4.33685174957,2015_Jul_13_1550,287.784491609,KRITL,001,31019,
,,,,,,,,"('SUBTRACT', 'DECREASE', 'x', 'y')",decrease,2,"(5, 3)",3,3,2,6,0,SUBTRACT,0,BUxy,,,,,0,11,11,1,,,,,,space,0.65261399973,3,1,2.0220809459,2015_Jul_13_1550,287.784491609,KRITL,001,31019,
,,,,,,,,"('HALF', 'TRIPLE', 'INCREASE', 'DIVIDE', 'x', 'y')",triple,4,"(3, 4, 12, 6)",6,6,3,9,increase,half,DIVIDE,UUUBxy,,,,,0,12,12,16,,,,,,space,3.46024957293,6,1,5.99046944448,2015_Jul_13_1550,287.784491609,KRITL,001,31019,
,,,,,,,,"('DIVIDE', 'DECREASE', 'TRIPLE', 'x', 'y')",decrease,3,"(9, 8, 4)",4,4,2,3,triple,DIVIDE,0,BUUxy,,,,,0,13,13,5,,,,,,space,1.47131366841,4,1,3.54322556441,2015_Jul_13_1550,287.784491609,KRITL,001,31019,
,,,,,,,,"('THIRD', 'DOUBLE', 'ADD', 'DECREASE', 'x', 'y')",double,4,"(5, 12, 24, 8)",8,8,7,6,ADD,third,decrease,UUBUxy,,,,,0,14,14,14,,,,,,space,3.36521488987,8,1,3.43645695574,2015_Jul_13_1550,287.784491609,KRITL,001,31019,
,,,,,,,,"('THIRD', 'HALF', 'ADD', 'x', 'y')",half,3,"(6, 3, 1)",1,1,3,3,ADD,third,0,UUBxy,,,,,0,15,15,9,,,,,,space,0.887371252815,1,1,3.46341779234,2015_Jul_13_1550,287.784491609,KRITL,001,31019,
,,,,,,,,"('INCREASE', 'SUBTRACT', 'HALF', 'x', 'y')",SUBTRACT,3,"(4, 2, 3)",3,3,2,8,half,increase,0,UBUxy,,,,,0,16,16,7,,,,,,space,2.14837506704,3,1,2.52029770694,2015_Jul_13_1550,287.784491609,KRITL,001,31019,
,,,,,,,,"('THIRD', 'DOUBLE', 'INCREASE', 'TIMES', 'x', 'y')",double,4,"(8, 9, 18, 6)",6,6,4,2,increase,third,TIMES,UUUBxy,,,,,0,17,17,17,,,,,,space,3.261131201,6,1,3.22205007909,2015_Jul_13_1550,287.784491609,KRITL,001,31019,
,,,,,,,,"('DECREASE', 'TRIPLE', 'DIVIDE', 'DOUBLE', 'x', 'y')",triple,4,"(6, 2, 6, 5)",5,5,3,3,DIVIDE,decrease,double,UUBUxy,,,,,0,0,0,14,,,,,,space,8.21915238147,5,1,4.83848590398,2015_Jul_13_1550,287.784491609,KRITL,001,31019,
,,,,,,,,"('THIRD', 'DIVIDE', 'DECREASE', 'x', 'y')",DIVIDE,3,"(6, 3, 1)",1,1,2,7,decrease,third,0,UBUxy,,,,,0,1,1,6,,,,,,space,3.93440284504,1,1,2.70111578854,2015_Jul_13_1550,287.784491609,KRITL,001,31019,
,,,,,,,,"('THIRD', 'TIMES', 'HALF', 'x', 'y')",TIMES,3,"(3, 18, 6)",6,6,6,6,half,third,0,UBUxy,,,,,0,2,2,7,,,,,,space,3.35867967177,6,1,2.48557083064,2015_Jul_13_1550,287.784491609,KRITL,001,31019,
,,,,,,,,"('SUBTRACT', 'TRIPLE', 'DECREASE', 'x', 'y')",triple,3,"(4, 12, 3)",3,3,9,5,decrease,SUBTRACT,0,BUUxy,,,,,0,3,3,4,,,,,,space,1.34636830643,3,1,4.95873615588,2015_Jul_13_1550,287.784491609,KRITL,001,31019,
,,,,,,,,"('SUBTRACT', 'DOUBLE', 'TRIPLE', 'DECREASE', 'x', 'y')",double,4,"(2, 6, 12, 8)",8,8,4,3,triple,SUBTRACT,decrease,BUUUxy,,,,,0,4,4,10,,,,,,space,2.85455447721,8,1,4.94604158058,2015_Jul_13_1550,287.784491609,KRITL,001,31019,
,,,,,,,,"('DOUBLE', 'DECREASE', 'ADD', 'x', 'y')",decrease,3,"(4, 3, 6)",6,6,2,2,ADD,double,0,UUBxy,,,,,0,5,5,8,,,,,,space,1.78652927571,6,1,1.89953913307,2015_Jul_13_1550,287.784491609,KRITL,001,31019,
,,,,,,,,"('DOUBLE', 'THIRD', 'TIMES', 'x', 'y')",third,3,"(12, 4, 8)",8,8,6,2,TIMES,double,0,UUBxy,,,,,0,6,6,9,,,,,,space,1.22021312075,8,1,2.78574780718,2015_Jul_13_1550,287.784491609,KRITL,001,31019,
,,,,,,,,"('THIRD', 'DIVIDE', 'x', 'y')",DIVIDE,2,"(3, 1)",1,1,2,6,0,third,0,UBxy,,,,,0,7,7,3,,,,,,space,0.780487156124,1,1,4.74030504917,2015_Jul_13_1550,287.784491609,KRITL,001,31019,
,,,,,,,,"('INCREASE', 'SUBTRACT', 'x', 'y')",SUBTRACT,2,"(3, 4)",4,4,3,6,0,increase,0,UBxy,,,,,0,8,8,2,,,,,,space,0.790161896613,4,1,2.17677320371,2015_Jul_13_1550,287.784491609,KRITL,001,31019,
,,,,,,,,"('INCREASE', 'ADD', 'HALF', 'TRIPLE', 'x', 'y')",ADD,4,"(6, 3, 6, 7)",7,7,3,2,half,increase,triple,UBUUxy,,,,,0,9,9,13,,,,,,space,2.24007914774,5,0,4.29741576465,2015_Jul_13_1550,287.784491609,KRITL,001,31019,
,,,,,,,,"('DOUBLE', 'DIVIDE', 'TRIPLE', 'INCREASE', 'x', 'y')",DIVIDE,4,"(5, 15, 3, 6)",6,6,5,4,triple,double,increase,UBUUxy,,,,,0,10,10,12,,,,,,space,2.34354480106,6,1,4.64734634943,2015_Jul_13_1550,287.784491609,KRITL,001,31019,
,,,,,,,,"('DIVIDE', 'THIRD', 'x', 'y')",third,2,"(3, 1)",1,1,3,9,0,DIVIDE,0,BUxy,,,,,0,11,11,0,,,,,,space,0.997703889618,1,1,1.58888424997,2015_Jul_13_1550,287.784491609,KRITL,001,31019,
,,,,,,,,"('TIMES', 'DOUBLE', 'x', 'y')",double,2,"(4, 8)",8,8,2,2,0,TIMES,0,BUxy,,,,,0,12,12,1,,,,,,space,1.43054117303,8,1,1.9727196467,2015_Jul_13_1550,287.784491609,KRITL,001,31019,
,,,,,,,,"('DECREASE', 'TRIPLE', 'HALF', 'SUBTRACT', 'x', 'y')",triple,4,"(4, 2, 6, 5)",5,5,2,6,half,decrease,SUBTRACT,UUUBxy,,,,,0,13,13,16,,,,,,space,4.02661822241,5,1,3.32751892338,2015_Jul_13_1550,287.784491609,KRITL,001,31019,
,,,,,,,,"('HALF', 'TRIPLE', 'INCREASE', 'SUBTRACT', 'x', 'y')",triple,4,"(1, 2, 6, 3)",3,3,2,3,increase,half,SUBTRACT,UUUBxy,,,,,0,14,14,17,,,,,,space,2.83328579663,3,1,5.09557747649,2015_Jul_13_1550,287.784491609,KRITL,001,31019,
,,,,,,,,"('THIRD', 'DECREASE', 'TIMES', 'HALF', 'x', 'y')",decrease,4,"(4, 16, 15, 5)",5,5,4,8,TIMES,third,half,UUBUxy,,,,,0,15,15,15,,,,,,space,6.4976414211,5,1,5.10378517007,2015_Jul_13_1550,287.784491609,KRITL,001,31019,
,,,,,,,,"('SUBTRACT', 'TRIPLE', 'DECREASE', 'DOUBLE', 'x', 'y')",triple,4,"(4, 3, 9, 1)",1,1,8,2,decrease,SUBTRACT,double,BUUUxy,,,,,0,16,16,11,,,,,,space,5.7393531485,1,1,4.18465158157,2015_Jul_13_1550,287.784491609,KRITL,001,31019,
,,,,,,,,"('TIMES', 'HALF', 'INCREASE', 'x', 'y')",half,3,"(6, 3, 9)",9,9,3,5,increase,TIMES,0,BUUxy,,,,,0,17,17,5,,,,,,space,0.981214310275,9,1,3.35977155785,2015_Jul_13_1550,287.784491609,KRITL,001,31019,
,,,,,,,,"('TIMES', 'THIRD', 'DOUBLE', 'x', 'y')",third,3,"(6, 2, 4)",4,4,2,3,double,TIMES,0,BUUxy,,,,,0,0,0,5,,,,,,space,2.65239877219,4,1,4.02577726013,2015_Jul_13_1550,287.784491609,KRITL,001,31019,
,,,,,,,,"('DECREASE', 'TRIPLE', 'DIVIDE', 'x', 'y')",triple,3,"(2, 6, 5)",5,5,4,8,DIVIDE,decrease,0,UUBxy,,,,,0,1,1,8,,,,,,space,0.987834919477,5,1,4.41178977973,2015_Jul_13_1550,287.784491609,KRITL,001,31019,
,,,,,,,,"('DECREASE', 'TRIPLE', 'HALF', 'ADD', 'x', 'y')",triple,4,"(6, 3, 9, 8)",8,8,2,4,half,decrease,ADD,UUUBxy,,,,,0,2,2,16,,,,,,space,4.10059350304,8,1,4.17185271718,2015_Jul_13_1550,287.784491609,KRITL,001,31019,
,,,,,,,,"('TRIPLE', 'DECREASE', 'HALF', 'SUBTRACT', 'x', 'y')",decrease,4,"(4, 2, 1, 3)",3,3,5,9,half,triple,SUBTRACT,UUUBxy,,,,,0,3,3,17,,,,,,space,4.91834512068,3,1,2.94515092351,2015_Jul_13_1550,287.784491609,KRITL,001,31019,
,,,,,,,,"('DIVIDE', 'TRIPLE', 'HALF', 'x', 'y')",triple,3,"(4, 12, 4)",4,4,3,8,half,DIVIDE,0,BUUxy,,,,,0,4,4,4,,,,,,space,2.05041013972,4,1,3.9818225468,2015_Jul_13_1550,287.784491609,KRITL,001,31019,
,,,,,,,,"('THIRD', 'INCREASE', 'SUBTRACT', 'x', 'y')",increase,3,"(2, 3, 1)",1,1,6,8,SUBTRACT,third,0,UUBxy,,,,,0,5,5,9,,,,,,space,1.25080097892,1,1,2.08479860128,2015_Jul_13_1550,287.784491609,KRITL,001,31019,
,,,,,,,,"('INCREASE', 'DIVIDE', 'TRIPLE', 'HALF', 'x', 'y')",DIVIDE,4,"(2, 6, 2, 3)",3,3,3,4,triple,increase,half,UBUUxy,,,,,0,6,6,12,,,,,,space,3.82173630182,3,1,4.13657534838,2015_Jul_13_1550,287.784491609,KRITL,001,31019,
,,,,,,,,"('DOUBLE', 'TIMES', 'x', 'y')",TIMES,2,"(4, 8)",8,8,2,2,0,double,0,UBxy,,,,,0,7,7,3,,,,,,space,0.932139981189,8,1,1.35875386407,2015_Jul_13_1550,287.784491609,KRITL,001,31019,
,,,,,,,,"('ADD', 'THIRD', 'x', 'y')",third,2,"(1, 7)",7,7,6,3,0,ADD,0,BUxy,,,,,0,8,8,0,,,,,,space,0.573911062384,7,1,1.82717298449,2015_Jul_13_1550,287.784491609,KRITL,001,31019,
,,,,,,,,"('THIRD', 'INCREASE', 'ADD', 'DOUBLE', 'x', 'y')",increase,4,"(16, 20, 21, 7)",7,7,4,8,ADD,third,double,UUBUxy,,,,,0,9,9,14,,,,,,space,2.00464331545,8,0,13.8709716141,2015_Jul_13_1550,287.784491609,KRITL,001,31019,
,,,,,,,,"('SUBTRACT', 'INCREASE', 'x', 'y')",increase,2,"(6, 2)",2,2,4,5,0,SUBTRACT,0,BUxy,,,,,0,10,10,1,,,,,,space,1.48580075667,2,1,2.39360847697,2015_Jul_13_1550,287.784491609,KRITL,001,31019,
,,,,,,,,"('INCREASE', 'ADD', 'TRIPLE', 'x', 'y')",ADD,3,"(6, 8, 9)",9,9,2,2,triple,increase,0,UBUxy,,,,,0,11,11,6,,,,,,space,0.993470031361,9,1,3.82999299018,2015_Jul_13_1550,287.784491609,KRITL,001,31019,
,,,,,,,,"('THIRD', 'TIMES', 'HALF', 'INCREASE', 'x', 'y')",TIMES,4,"(8, 4, 12, 4)",4,4,3,7,half,third,increase,UBUUxy,,,,,0,12,12,13,,,,,,space,3.75825572602,4,1,2.98919697729,2015_Jul_13_1550,287.784491609,KRITL,001,31019,
,,,,,,,,"('TIMES', 'INCREASE', 'HALF', 'TRIPLE', 'x', 'y')",increase,4,"(6, 3, 4, 8)",8,8,2,2,half,TIMES,triple,BUUUxy,,,,,0,13,13,11,,,,,,space,2.46077416826,8,1,5.62495918549,2015_Jul_13_1550,287.784491609,KRITL,001,31019,
,,,,,,,,"('DIVIDE', 'DOUBLE', 'INCREASE', 'THIRD', 'x', 'y')",double,4,"(2, 3, 6, 2)",2,2,3,6,increase,DIVIDE,third,BUUUxy,,,,,0,14,14,10,,,,,,space,3.75381048984,2,1,4.58139538142,2015_Jul_13_1550,287.784491609,KRITL,001,31019,
,,,,,,,,"('INCREASE', 'SUBTRACT', 'THIRD', 'x', 'y')",SUBTRACT,3,"(3, 1, 2)",2,2,2,9,third,increase,0,UBUxy,,,,,0,15,15,7,,,,,,space,0.879072568787,2,1,2.53998245287,2015_Jul_13_1550,287.784491609,KRITL,001,31019,
,,,,,,,,"('DOUBLE', 'ADD', 'x', 'y')",ADD,2,"(4, 8)",8,8,2,2,0,double,0,UBxy,,,,,0,16,16,2,,,,,,space,0.538211987587,8,1,1.55512117309,2015_Jul_13_1550,287.784491609,KRITL,001,31019,
,,,,,,,,"('TRIPLE', 'DOUBLE', 'SUBTRACT', 'DECREASE', 'x', 'y')",double,4,"(4, 1, 2, 6)",6,6,3,5,SUBTRACT,triple,decrease,UUBUxy,,,,,0,17,17,15,,,,,,space,3.23981947487,6,1,3.61173721525,2015_Jul_13_1550,287.784491609,KRITL,001,31019,
,,,,,,,,"('HALF', 'ADD', 'x', 'y')",ADD,2,"(12, 6)",6,6,8,4,0,half,0,UBxy,,,,,0,0,0,3,,,,,,space,1.51594521111,6,1,2.26985649049,2015_Jul_13_1550,287.784491609,KRITL,001,31019,
,,,,,,,,"('DECREASE', 'TIMES', 'x', 'y')",TIMES,2,"(9, 8)",8,8,3,3,0,decrease,0,UBxy,,,,,0,1,1,2,,,,,,space,0.567545226659,8,1,2.40668311261,2015_Jul_13_1550,287.784491609,KRITL,001,31019,
,,,,,,,,"('DECREASE', 'DOUBLE', 'TIMES', 'THIRD', 'x', 'y')",double,4,"(1, 3, 6, 5)",5,5,3,3,TIMES,decrease,third,UUBUxy,,,,,0,2,2,14,,,,,,space,3.112534607,5,1,3.3892363832,2015_Jul_13_1550,287.784491609,KRITL,001,31019,
,,,,,,,,"('THIRD', 'HALF', 'INCREASE', 'SUBTRACT', 'x', 'y')",half,4,"(5, 6, 3, 1)",1,1,2,7,increase,third,SUBTRACT,UUUBxy,,,,,0,3,3,17,,,,,,space,4.18437126081,1,1,6.49938843882,2015_Jul_13_1550,287.784491609,KRITL,001,31019,
,,,,,,,,"('DIVIDE', 'DECREASE', 'x', 'y')",decrease,2,"(8, 2)",2,2,4,9,0,DIVIDE,0,BUxy,,,,,0,4,4,1,,,,,,space,0.871115449117,2,1,1.55920034746,2015_Jul_13_1550,287.784491609,KRITL,001,31019,
,,,,,,,,"('DECREASE', 'ADD', 'THIRD', 'HALF', 'x', 'y')",ADD,4,"(3, 1, 7, 6)",6,6,6,6,third,decrease,half,UBUUxy,,,,,0,5,5,12,,,,,,space,2.67766893521,6,1,5.23819074477,2015_Jul_13_1550,287.784491609,KRITL,001,31019,
,,,,,,,,"('INCREASE', 'ADD', 'HALF', 'x', 'y')",ADD,3,"(1, 4, 5)",5,5,3,2,half,increase,0,UBUxy,,,,,0,6,6,7,,,,,,space,0.99403592234,5,1,2.1509686464,2015_Jul_13_1550,287.784491609,KRITL,001,31019,
,,,,,,,,"('ADD', 'DECREASE', 'x', 'y')",decrease,2,"(2, 7)",7,7,5,3,0,ADD,0,BUxy,,,,,0,7,7,0,,,,,,space,0.65150846506,7,1,1.47440384596,2015_Jul_13_1550,287.784491609,KRITL,001,31019,
,,,,,,,,"('HALF', 'INCREASE', 'TIMES', 'x', 'y')",increase,3,"(9, 10, 5)",5,5,3,3,TIMES,half,0,UUBxy,,,,,0,8,8,9,,,,,,space,0.810646309052,5,1,2.23521290551,2015_Jul_13_1550,287.784491609,KRITL,001,31019,
,,,,,,,,"('INCREASE', 'HALF', 'THIRD', 'TIMES', 'x', 'y')",half,4,"(12, 4, 2, 3)",3,3,4,3,third,increase,TIMES,UUUBxy,,,,,0,9,9,16,,,,,,space,2.85378315777,3,1,3.08280380943,2015_Jul_13_1550,287.784491609,KRITL,001,31019,
,,,,,,,,"('ADD', 'TRIPLE', 'DOUBLE', 'DECREASE', 'x', 'y')",triple,4,"(1, 2, 6, 8)",8,8,2,2,double,ADD,decrease,BUUUxy,,,,,0,10,10,11,,,,,,space,2.253176531,8,1,2.93823564512,2015_Jul_13_1550,287.784491609,KRITL,001,31019,
,,,,,,,,"('DOUBLE', 'THIRD', 'ADD', 'x', 'y')",third,3,"(9, 3, 6)",6,6,4,5,ADD,double,0,UUBxy,,,,,0,11,11,8,,,,,,space,0.909442399687,6,1,3.1778027963,2015_Jul_13_1550,287.784491609,KRITL,001,31019,
,,,,,,,,"('DOUBLE', 'SUBTRACT', 'INCREASE', 'x', 'y')",SUBTRACT,3,"(4, 1, 2)",2,2,3,3,increase,double,0,UBUxy,,,,,0,12,12,6,,,,,,space,1.55310398358,2,1,2.16113858519,2015_Jul_13_1550,287.784491609,KRITL,001,31019,
,,,,,,,,"('ADD', 'DOUBLE', 'DECREASE', 'x', 'y')",double,3,"(1, 2, 7)",7,7,5,2,decrease,ADD,0,BUUxy,,,,,0,13,13,4,,,,,,space,1.08493333717,7,1,2.73178518825,2015_Jul_13_1550,287.784491609,KRITL,001,31019,
,,,,,,,,"('ADD', 'DECREASE', 'THIRD', 'DOUBLE', 'x', 'y')",decrease,4,"(18, 6, 5, 9)",9,9,4,9,third,ADD,double,BUUUxy,,,,,0,14,14,10,,,,,,space,3.50299061293,9,1,5.45189839439,2015_Jul_13_1550,287.784491609,KRITL,001,31019,
,,,,,,,,"('ADD', 'TRIPLE', 'HALF', 'x', 'y')",triple,3,"(2, 6, 8)",8,8,2,4,half,ADD,0,BUUxy,,,,,0,15,15,5,,,,,,space,0.925667406584,8,1,2.28895609744,2015_Jul_13_1550,287.784491609,KRITL,001,31019,
,,,,,,,,"('DECREASE', 'TRIPLE', 'SUBTRACT', 'DOUBLE', 'x', 'y')",triple,4,"(6, 3, 9, 8)",8,8,3,3,SUBTRACT,decrease,double,UUBUxy,,,,,0,16,16,15,,,,,,space,4.48451009137,8,1,5.80235007475,2015_Jul_13_1550,287.784491609,KRITL,001,31019,
,,,,,,,,"('DECREASE', 'SUBTRACT', 'DOUBLE', 'THIRD', 'x', 'y')",SUBTRACT,4,"(3, 6, 4, 3)",3,3,2,9,double,decrease,third,UBUUxy,,,,,0,17,17,13,,,,,,space,2.98888550978,3,1,4.23072462389,2015_Jul_13_1550,287.784491609,KRITL,001,31019,
