operationc,operationb,operationa,correctresponse,valuey,operationd,condition,valuex,Rule,Operatora,Length,Intermediate,CorrectResponse,Result,Y,X,Operatorc,Operatorb,Operatord,Structure,practice_trials.thisRepN,practice_trials.thisTrialN,practice_trials.thisN,practice_trials.thisIndex,block.thisRepN,block.thisTrialN,block.thisN,block.thisIndex,practice_encoding.keys,practice_encoding.rt,practice_execution.keys,practice_execution.corr,practice_execution.rt,encoding.keys,encoding.rt,execution.keys,execution.corr,execution.rt,date,frameRate,expName,session,participant,
0,ADD,decrease,7,5,0,2,3,,,,,,,,,,,,,0,0,0,0,,,,,['space'],[4.231823859183351],7,1,14.1003828251,,,,,,2015_Jul_08_1558,None,KRITL,001,31013,
0,ADD,half,7,5,0,2,4,,,,,,,,,,,,,0,1,1,2,,,,,['space'],[3.4243205721431877],7,1,3.23631074098,,,,,,2015_Jul_08_1558,None,KRITL,001,31013,
0,decrease,TIMES,8,3,0,2,3,,,,,,,,,,,,,0,2,2,1,,,,,['space'],[6.219846009058529],8,1,4.78377261333,,,,,,2015_Jul_08_1558,None,KRITL,001,31013,
ADD,triple ,half,8,2,0,3,4,,,,,,,,,,,,,0,3,3,3,,,,,['space'],[5.295725441057584],8,1,4.97180729192,,,,,,2015_Jul_08_1558,None,KRITL,001,31013,
increase,DIVIDE,double,9,8,triple,4,8,,,,,,,,,,,,,0,4,4,5,,,,,['space'],[7.519747564336285],2,0,16.0834575412,,,,,,2015_Jul_08_1558,None,KRITL,001,31013,
increase,DIVIDE,triple,3,3,0,3,2,,,,,,,,,,,,,0,5,5,4,,,,,['space'],[4.833090167041519],4,0,5.80868441379,,,,,,2015_Jul_08_1558,None,KRITL,001,31013,
,,,,,,,,"('HALF', 'TRIPLE', 'INCREASE', 'DIVIDE', 'x', 'y')",triple,4,"(3, 4, 12, 6)",6,6,3,9,increase,half,DIVIDE,UUUBxy,,,,,0,0,0,16,,,,,,space,6.77213352786,4,0,14.8153183215,2015_Jul_08_1558,None,KRITL,001,31013,
,,,,,,,,"('THIRD', 'DOUBLE', 'ADD', 'DECREASE', 'x', 'y')",double,4,"(5, 12, 24, 8)",8,8,7,6,ADD,third,decrease,UUBUxy,,,,,0,1,1,14,,,,,,space,9.99470015304,None,0,,2015_Jul_08_1558,None,KRITL,001,31013,
,,,,,,,,"('ADD', 'HALF', 'THIRD', 'x', 'y')",half,3,"(2, 1, 9)",9,9,8,6,third,ADD,0,BUUxy,,,,,0,2,2,4,,,,,,space,2.91687912366,9,1,9.58746759775,2015_Jul_08_1558,None,KRITL,001,31013,
,,,,,,,,"('ADD', 'DOUBLE', 'DECREASE', 'THIRD', 'x', 'y')",double,4,"(2, 1, 2, 8)",8,8,6,6,decrease,ADD,third,BUUUxy,,,,,0,3,3,10,,,,,,space,8.34584721085,7,0,6.60274455362,2015_Jul_08_1558,None,KRITL,001,31013,
,,,,,,,,"('THIRD', 'TIMES', 'DOUBLE', 'DECREASE', 'x', 'y')",TIMES,4,"(1, 2, 6, 2)",2,2,3,2,double,third,decrease,UBUUxy,,,,,0,4,4,13,,,,,,space,8.76565430398,1,0,9.84687697838,2015_Jul_08_1558,None,KRITL,001,31013,
,,,,,,,,"('DOUBLE', 'ADD', 'INCREASE', 'THIRD', 'x', 'y')",ADD,4,"(1, 2, 4, 8)",8,8,2,3,increase,double,third,UBUUxy,,,,,0,5,5,12,,,,,,space,10.9360501232,8,1,7.65308645043,2015_Jul_08_1558,None,KRITL,001,31013,
,,,,,,,,"('SUBTRACT', 'DECREASE', 'TRIPLE', 'DOUBLE', 'x', 'y')",decrease,4,"(6, 18, 17, 8)",8,8,9,3,triple,SUBTRACT,double,BUUUxy,,,,,0,6,6,11,,,,,,space,11.7203326333,None,0,,2015_Jul_08_1558,None,KRITL,001,31013,
,,,,,,,,"('DECREASE', 'DIVIDE', 'x', 'y')",DIVIDE,2,"(2, 1)",1,1,4,8,0,decrease,0,UBxy,,,,,0,7,7,2,,,,,,space,2.58844679558,1,1,2.49331447264,2015_Jul_08_1558,None,KRITL,001,31013,
,,,,,,,,"('THIRD', 'DOUBLE', 'INCREASE', 'TIMES', 'x', 'y')",double,4,"(8, 9, 18, 6)",6,6,4,2,increase,third,TIMES,UUUBxy,,,,,0,8,8,17,,,,,,space,11.1419427383,6,1,9.0290973637,2015_Jul_08_1558,None,KRITL,001,31013,
,,,,,,,,"('INCREASE', 'SUBTRACT', 'HALF', 'x', 'y')",SUBTRACT,3,"(4, 2, 3)",3,3,2,8,half,increase,0,UBUxy,,,,,0,9,9,7,,,,,,space,2.49633675726,3,1,5.22927332534,2015_Jul_08_1558,None,KRITL,001,31013,
,,,,,,,,"('INCREASE', 'ADD', 'x', 'y')",ADD,2,"(5, 6)",6,6,2,3,0,increase,0,UBxy,,,,,0,10,10,3,,,,,,space,2.45904919822,6,1,1.90594416473,2015_Jul_08_1558,None,KRITL,001,31013,
,,,,,,,,"('SUBTRACT', 'DECREASE', 'x', 'y')",decrease,2,"(5, 3)",3,3,2,6,0,SUBTRACT,0,BUxy,,,,,0,11,11,1,,,,,,space,9.32459917807,3,1,2.922980387,2015_Jul_08_1558,None,KRITL,001,31013,
,,,,,,,,"('DIVIDE', 'INCREASE', 'x', 'y')",increase,2,"(4, 2)",2,2,2,3,0,DIVIDE,0,BUxy,,,,,0,12,12,0,,,,,,space,11.2992219262,2,1,1.75546476725,2015_Jul_08_1558,None,KRITL,001,31013,
,,,,,,,,"('DIVIDE', 'DECREASE', 'TRIPLE', 'x', 'y')",decrease,3,"(9, 8, 4)",4,4,2,3,triple,DIVIDE,0,BUUxy,,,,,0,13,13,5,,,,,,space,9.54640113303,4,1,3.33478416527,2015_Jul_08_1558,None,KRITL,001,31013,
,,,,,,,,"('INCREASE', 'TRIPLE', 'DIVIDE', 'x', 'y')",triple,3,"(2, 6, 7)",7,7,3,6,DIVIDE,increase,0,UUBxy,,,,,0,14,14,8,,,,,,space,5.96329128055,7,1,5.48916005614,2015_Jul_08_1558,None,KRITL,001,31013,
,,,,,,,,"('THIRD', 'INCREASE', 'DIVIDE', 'DOUBLE', 'x', 'y')",increse,4,"(18, 2, 3, 1)",1,1,9,9,DIVIDE,third,double,UUBUxy,,,,,0,15,15,15,,,,,,space,13.1860171391,3,0,14.3712801069,2015_Jul_08_1558,None,KRITL,001,31013,
,,,,,,,,"('HALF', 'ADD', 'TRIPLE', 'x', 'y')",ADD,3,"(9, 12, 6)",6,6,3,3,triple,half,0,UBUxy,,,,,0,16,16,6,,,,,,space,3.9747858311,6,1,8.38294893928,2015_Jul_08_1558,None,KRITL,001,31013,
,,,,,,,,"('THIRD', 'HALF', 'ADD', 'x', 'y')",half,3,"(6, 3, 1)",1,1,3,3,ADD,third,0,UUBxy,,,,,0,17,17,9,,,,,,space,2.74486577325,1,1,5.40853441943,2015_Jul_08_1558,None,KRITL,001,31013,
,,,,,,,,"('INCREASE', 'SUBTRACT', 'THIRD', 'x', 'y')",SUBTRACT,3,"(3, 1, 2)",2,2,2,9,third,increase,0,UBUxy,,,,,0,0,0,7,,,,,,space,2.62015453688,2,1,3.12665038403,2015_Jul_08_1558,None,KRITL,001,31013,
,,,,,,,,"('TRIPLE', 'DECREASE', 'HALF', 'SUBTRACT', 'x', 'y')",decrease,4,"(4, 2, 1, 3)",3,3,5,9,half,triple,SUBTRACT,UUUBxy,,,,,0,1,1,17,,,,,,space,6.6539319622,3,1,9.22174631078,2015_Jul_08_1558,None,KRITL,001,31013,
,,,,,,,,"('DECREASE', 'TRIPLE', 'HALF', 'ADD', 'x', 'y')",triple,4,"(6, 3, 9, 8)",8,8,2,4,half,decrease,ADD,UUUBxy,,,,,0,2,2,16,,,,,,space,12.7612160671,5,0,9.25378791723,2015_Jul_08_1558,None,KRITL,001,31013,
,,,,,,,,"('THIRD', 'INCREASE', 'ADD', 'DOUBLE', 'x', 'y')",increase,4,"(16, 20, 21, 7)",7,7,4,8,ADD,third,double,UUBUxy,,,,,0,3,3,14,,,,,,space,12.3705143868,7,1,6.53371040733,2015_Jul_08_1558,None,KRITL,001,31013,
,,,,,,,,"('INCREASE', 'ADD', 'TRIPLE', 'x', 'y')",ADD,3,"(6, 8, 9)",9,9,2,2,triple,increase,0,UBUxy,,,,,0,4,4,6,,,,,,space,1.74216720485,9,1,8.73463949037,2015_Jul_08_1558,None,KRITL,001,31013,
,,,,,,,,"('TIMES', 'THIRD', 'DOUBLE', 'x', 'y')",third,3,"(6, 2, 4)",4,4,2,3,double,TIMES,0,BUUxy,,,,,0,5,5,5,,,,,,space,7.98553460947,4,1,3.0141619722,2015_Jul_08_1558,None,KRITL,001,31013,
,,,,,,,,"('INCREASE', 'DIVIDE', 'TRIPLE', 'HALF', 'x', 'y')",DIVIDE,4,"(2, 6, 2, 3)",3,3,3,4,triple,increase,half,UBUUxy,,,,,0,6,6,12,,,,,,space,8.57669817156,3,1,7.15832487879,2015_Jul_08_1558,None,KRITL,001,31013,
,,,,,,,,"('DOUBLE', 'ADD', 'x', 'y')",ADD,2,"(4, 8)",8,8,2,2,0,double,0,UBxy,,,,,0,7,7,2,,,,,,space,1.31480055056,8,1,3.61208297913,2015_Jul_08_1558,None,KRITL,001,31013,
,,,,,,,,"('DOUBLE', 'TIMES', 'x', 'y')",TIMES,2,"(4, 8)",8,8,2,2,0,double,0,UBxy,,,,,0,8,8,3,,,,,,space,2.02352349533,8,1,3.46243194523,2015_Jul_08_1558,None,KRITL,001,31013,
,,,,,,,,"('DIVIDE', 'TRIPLE', 'HALF', 'x', 'y')",triple,3,"(4, 12, 4)",4,4,3,8,half,DIVIDE,0,BUUxy,,,,,0,9,9,4,,,,,,space,2.32300964394,4,1,6.35167725249,2015_Jul_08_1558,None,KRITL,001,31013,
,,,,,,,,"('ADD', 'THIRD', 'x', 'y')",third,2,"(1, 7)",7,7,6,3,0,ADD,0,BUxy,,,,,0,10,10,0,,,,,,space,1.0868479874,7,1,2.71748113085,2015_Jul_08_1558,None,KRITL,001,31013,
,,,,,,,,"('THIRD', 'INCREASE', 'SUBTRACT', 'x', 'y')",increase,3,"(2, 3, 1)",1,1,6,8,SUBTRACT,third,0,UUBxy,,,,,0,11,11,9,,,,,,space,2.8694566222,1,1,4.47518846409,2015_Jul_08_1558,None,KRITL,001,31013,
,,,,,,,,"('DIVIDE', 'DOUBLE', 'INCREASE', 'THIRD', 'x', 'y')",double,4,"(2, 3, 6, 2)",2,2,3,6,increase,DIVIDE,third,BUUUxy,,,,,0,12,12,10,,,,,,space,6.97965907257,3,0,6.85886742719,2015_Jul_08_1558,None,KRITL,001,31013,
,,,,,,,,"('DECREASE', 'TRIPLE', 'DIVIDE', 'x', 'y')",triple,3,"(2, 6, 5)",5,5,4,8,DIVIDE,decrease,0,UUBxy,,,,,0,13,13,8,,,,,,space,6.57252695682,5,1,7.16313792656,2015_Jul_08_1558,None,KRITL,001,31013,
,,,,,,,,"('SUBTRACT', 'INCREASE', 'x', 'y')",increase,2,"(6, 2)",2,2,4,5,0,SUBTRACT,0,BUxy,,,,,0,14,14,1,,,,,,space,1.7771460548,2,1,6.48950686996,2015_Jul_08_1558,None,KRITL,001,31013,
,,,,,,,,"('TIMES', 'INCREASE', 'HALF', 'TRIPLE', 'x', 'y')",increase,4,"(6, 3, 4, 8)",8,8,2,2,half,TIMES,triple,BUUUxy,,,,,0,15,15,11,,,,,,space,3.52721473515,2,0,8.37945735363,2015_Jul_08_1558,None,KRITL,001,31013,
,,,,,,,,"('THIRD', 'TIMES', 'HALF', 'INCREASE', 'x', 'y')",TIMES,4,"(8, 4, 12, 4)",4,4,3,7,half,third,increase,UBUUxy,,,,,0,16,16,13,,,,,,space,3.45929207288,4,1,6.53464550975,2015_Jul_08_1558,None,KRITL,001,31013,
,,,,,,,,"('TRIPLE', 'DOUBLE', 'SUBTRACT', 'DECREASE', 'x', 'y')",double,4,"(4, 1, 2, 6)",6,6,3,5,SUBTRACT,triple,decrease,UUBUxy,,,,,0,17,17,15,,,,,,space,4.81337042479,6,1,12.2072305255,2015_Jul_08_1558,None,KRITL,001,31013,
,,,,,,,,"('DOUBLE', 'THIRD', 'TIMES', 'x', 'y')",third,3,"(12, 4, 8)",8,8,6,2,TIMES,double,0,UUBxy,,,,,0,0,0,9,,,,,,space,1.43964162339,8,1,5.55725210074,2015_Jul_08_1558,None,KRITL,001,31013,
,,,,,,,,"('DOUBLE', 'DIVIDE', 'TRIPLE', 'INCREASE', 'x', 'y')",DIVIDE,4,"(5, 15, 3, 6)",6,6,5,4,triple,double,increase,UBUUxy,,,,,0,1,1,12,,,,,,space,3.05684946776,5,0,13.3014060483,2015_Jul_08_1558,None,KRITL,001,31013,
,,,,,,,,"('HALF', 'TRIPLE', 'INCREASE', 'SUBTRACT', 'x', 'y')",triple,4,"(1, 2, 6, 3)",3,3,2,3,increase,half,SUBTRACT,UUUBxy,,,,,0,2,2,17,,,,,,space,7.51339712701,3,1,7.61981192263,2015_Jul_08_1558,None,KRITL,001,31013,
,,,,,,,,"('SUBTRACT', 'DOUBLE', 'TRIPLE', 'DECREASE', 'x', 'y')",double,4,"(2, 6, 12, 8)",8,8,4,3,triple,SUBTRACT,decrease,BUUUxy,,,,,0,3,3,10,,,,,,space,7.96623062383,2,0,12.718323143,2015_Jul_08_1558,None,KRITL,001,31013,
,,,,,,,,"('DECREASE', 'TRIPLE', 'HALF', 'SUBTRACT', 'x', 'y')",triple,4,"(4, 2, 6, 5)",5,5,2,6,half,decrease,SUBTRACT,UUUBxy,,,,,0,4,4,16,,,,,,space,15.6711795624,5,1,5.25895442811,2015_Jul_08_1558,None,KRITL,001,31013,
,,,,,,,,"('THIRD', 'TIMES', 'HALF', 'x', 'y')",TIMES,3,"(3, 18, 6)",6,6,6,6,half,third,0,UBUxy,,,,,0,5,5,7,,,,,,space,2.80906272431,6,1,9.02889788451,2015_Jul_08_1558,None,KRITL,001,31013,
,,,,,,,,"('SUBTRACT', 'TRIPLE', 'DECREASE', 'x', 'y')",triple,3,"(4, 12, 3)",3,3,9,5,decrease,SUBTRACT,0,BUUxy,,,,,0,6,6,4,,,,,,space,4.76624294255,3,1,7.44787591415,2015_Jul_08_1558,None,KRITL,001,31013,
,,,,,,,,"('DIVIDE', 'THIRD', 'x', 'y')",third,2,"(3, 1)",1,1,3,9,0,DIVIDE,0,BUxy,,,,,0,7,7,0,,,,,,space,1.28978446098,1,1,2.98030720495,2015_Jul_08_1558,None,KRITL,001,31013,
,,,,,,,,"('THIRD', 'DECREASE', 'TIMES', 'HALF', 'x', 'y')",decrease,4,"(4, 16, 15, 5)",5,5,4,8,TIMES,third,half,UUBUxy,,,,,0,8,8,15,,,,,,space,4.10036042739,5,1,9.7761658071,2015_Jul_08_1558,None,KRITL,001,31013,
,,,,,,,,"('INCREASE', 'SUBTRACT', 'x', 'y')",SUBTRACT,2,"(3, 4)",4,4,3,6,0,increase,0,UBxy,,,,,0,9,9,2,,,,,,space,0.958978330615,4,1,1.72209259964,2015_Jul_08_1558,None,KRITL,001,31013,
,,,,,,,,"('DOUBLE', 'DECREASE', 'ADD', 'x', 'y')",decrease,3,"(4, 3, 6)",6,6,2,2,ADD,double,0,UUBxy,,,,,0,10,10,8,,,,,,space,5.32494739174,6,1,3.31942741774,2015_Jul_08_1558,None,KRITL,001,31013,
,,,,,,,,"('SUBTRACT', 'TRIPLE', 'DECREASE', 'DOUBLE', 'x', 'y')",triple,4,"(4, 3, 9, 1)",1,1,8,2,decrease,SUBTRACT,double,BUUUxy,,,,,0,11,11,11,,,,,,space,2.98048533636,1,1,11.2447256129,2015_Jul_08_1558,None,KRITL,001,31013,
,,,,,,,,"('TIMES', 'HALF', 'INCREASE', 'x', 'y')",half,3,"(6, 3, 9)",9,9,3,5,increase,TIMES,0,BUUxy,,,,,0,12,12,5,,,,,,space,4.11800068663,9,1,4.38702321413,2015_Jul_08_1558,None,KRITL,001,31013,
,,,,,,,,"('TIMES', 'DOUBLE', 'x', 'y')",double,2,"(4, 8)",8,8,2,2,0,TIMES,0,BUxy,,,,,0,13,13,1,,,,,,space,2.30451512385,8,1,2.67856764147,2015_Jul_08_1558,None,KRITL,001,31013,
,,,,,,,,"('DECREASE', 'TRIPLE', 'DIVIDE', 'DOUBLE', 'x', 'y')",triple,4,"(6, 2, 6, 5)",5,5,3,3,DIVIDE,decrease,double,UUBUxy,,,,,0,14,14,14,,,,,,space,2.66121085265,5,1,12.7549282732,2015_Jul_08_1558,None,KRITL,001,31013,
,,,,,,,,"('THIRD', 'DIVIDE', 'x', 'y')",DIVIDE,2,"(3, 1)",1,1,2,6,0,third,0,UBxy,,,,,0,15,15,3,,,,,,space,1.18399365025,1,1,3.12109611362,2015_Jul_08_1558,None,KRITL,001,31013,
,,,,,,,,"('INCREASE', 'ADD', 'HALF', 'TRIPLE', 'x', 'y')",ADD,4,"(6, 3, 6, 7)",7,7,3,2,half,increase,triple,UBUUxy,,,,,0,16,16,13,,,,,,space,4.56507413452,7,1,12.5180152451,2015_Jul_08_1558,None,KRITL,001,31013,
,,,,,,,,"('THIRD', 'DIVIDE', 'DECREASE', 'x', 'y')",DIVIDE,3,"(6, 3, 1)",1,1,2,7,decrease,third,0,UBUxy,,,,,0,17,17,6,,,,,,space,4.33259619359,1,1,16.5529356512,2015_Jul_08_1558,None,KRITL,001,31013,
,,,,,,,,"('DECREASE', 'THIRD', 'TIMES', 'HALF', 'x', 'y')",third,4,"(2, 12, 4, 3)",3,3,6,4,TIMES,decrease,half,UUBUxy,,,,,0,0,0,14,,,,,,space,4.11821416435,3,1,6.73224084066,2015_Jul_08_1558,None,KRITL,001,31013,
,,,,,,,,"('INCREASE', 'DIVIDE', 'THIRD', 'x', 'y')",DIVIDE,3,"(3, 1, 2)",2,2,3,9,third,increase,0,UBUxy,,,,,0,1,1,7,,,,,,space,1.42717627416,2,1,4.90734996804,2015_Jul_08_1558,None,KRITL,001,31013,
,,,,,,,,"('DOUBLE', 'DECREASE', 'SUBTRACT', 'x', 'y')",decrease,3,"(5, 4, 8)",8,8,2,7,SUBTRACT,double,0,UUBxy,,,,,0,2,2,8,,,,,,space,1.80340171503,8,1,3.93255678769,2015_Jul_08_1558,None,KRITL,001,31013,
,,,,,,,,"('ADD', 'DOUBLE', 'x', 'y')",double,2,"(4, 8)",8,8,4,2,0,ADD,0,BUxy,,,,,0,3,3,0,,,,,,space,1.50872301476,8,1,3.74582852279,2015_Jul_08_1558,None,KRITL,001,31013,
,,,,,,,,"('DIVIDE', 'INCREASE', 'DOUBLE', 'THIRD', 'x', 'y')",increase,4,"(2, 4, 5, 1)",1,1,5,6,double,DIVIDE,third,BUUUxy,,,,,0,4,4,11,,,,,,space,6.99718384387,1,1,11.6473638476,2015_Jul_08_1558,None,KRITL,001,31013,
,,,,,,,,"('DOUBLE', 'SUBTRACT', 'x', 'y')",SUBTRACT,2,"(1, 2)",2,2,7,8,0,double,0,UBxy,,,,,0,5,5,2,,,,,,space,1.28145253043,2,1,2.54096060076,2015_Jul_08_1558,None,KRITL,001,31013,
,,,,,,,,"('DOUBLE', 'DECREASE', 'TRIPLE', 'DIVIDE', 'x', 'y')",decrease,4,"(1, 3, 2, 4)",4,4,4,4,triple,double,DIVIDE,UUUBxy,,,,,0,6,6,17,,,,,,space,9.42514858575,4,1,6.67577808256,2015_Jul_08_1558,None,KRITL,001,31013,
,,,,,,,,"('DIVIDE', 'DOUBLE', 'THIRD', 'x', 'y')",double,3,"(2, 4, 1)",1,1,4,6,third,DIVIDE,0,BUUxy,,,,,0,7,7,4,,,,,,space,2.25097246103,1,1,4.70182481459,2015_Jul_08_1558,None,KRITL,001,31013,
,,,,,,,,"('DECREASE', 'ADD', 'DOUBLE', 'THIRD', 'x', 'y')",ADD,4,"(3, 6, 10, 9)",9,9,4,9,double,decrease ,third,UBUUxy,,,,,0,8,8,12,,,,,,space,4.28747365212,9,1,8.06781347367,2015_Jul_08_1558,None,KRITL,001,31013,
,,,,,,,,"('SUBTRACT', 'HALF', 'TRIPLE', 'x', 'y')",half,3,"(12, 6, 2)",2,2,4,4,triple,SUBTRACT,0,BUUxy,,,,,0,9,9,5,,,,,,space,2.55608322271,2,1,7.01437824962,2015_Jul_08_1558,None,KRITL,001,31013,
,,,,,,,,"('DOUBLE', 'TRIPLE', 'DIVIDE', 'DECREASE', 'x', 'y')",triple,4,"(8, 1, 3, 6)",6,6,8,9,DIVIDE,double,decrease,UUBUxy,,,,,0,10,10,15,,,,,,space,7.22542372702,6,1,11.2546614261,2015_Jul_08_1558,None,KRITL,001,31013,
,,,,,,,,"('HALF', 'SUBTRACT', 'TRIPLE', 'x', 'y')",SUBTRACT,3,"(9, 2, 1)",1,1,7,3,triple,half,0,UBUxy,,,,,0,11,11,6,,,,,,space,2.52065676947,1,1,6.62148964756,2015_Jul_08_1558,None,KRITL,001,31013,
,,,,,,,,"('ADD', 'THIRD', 'INCREASE', 'HALF', 'x', 'y')",third,4,"(2, 3, 1, 7)",7,7,6,4,increase,ADD,half,BUUUxy,,,,,0,12,12,10,,,,,,space,3.11127263871,1,0,12.3465268399,2015_Jul_08_1558,None,KRITL,001,31013,
,,,,,,,,"('DECREASE', 'HALF', 'TRIPLE', 'DIVIDE', 'x', 'y')",half,4,"(4, 12, 6, 5)",5,5,2,8,triple,decrease,DIVIDE,UUUBxy,,,,,0,13,13,16,,,,,,space,3.35166290398,7,0,8.09131912085,2015_Jul_08_1558,None,KRITL,001,31013,
,,,,,,,,"('DECREASE', 'TIMES', 'DOUBLE', 'THIRD', 'x', 'y')",TIMES,4,"(1, 2, 8, 7)",7,7,4,3,double,decrease,third,UBUUxy,,,,,0,14,14,13,,,,,,space,4.30243774063,7,1,12.9712581992,2015_Jul_08_1558,None,KRITL,001,31013,
,,,,,,,,"('DOUBLE', 'TRIPLE', 'SUBTRACT', 'x', 'y')",triple,3,"(1, 3, 6)",6,6,3,4,SUBTRACT,double,0,UUBxy,,,,,0,15,15,9,,,,,,space,3.52573753928,6,1,7.4286650188,2015_Jul_08_1558,None,KRITL,001,31013,
,,,,,,,,"('HALF', 'TIMES', 'x', 'y')",TIMES,2,"(16, 8)",8,8,4,4,0,half,0,UBxy,,,,,0,16,16,3,,,,,,space,2.75113431914,4,0,2.91045834367,2015_Jul_08_1558,None,KRITL,001,31013,
,,,,,,,,"('DIVIDE', 'DOUBLE', 'x', 'y')",double,2,"(12, 2)",2,2,6,6,0,DIVIDE,0,BUxy,,,,,0,17,17,1,,,,,,space,7.41549659292,2,1,6.26205790426,2015_Jul_08_1558,None,KRITL,001,31013,
,,,,,,,,"('DOUBLE', 'THIRD', 'ADD', 'x', 'y')",third,3,"(9, 3, 6)",6,6,4,5,ADD,double,0,UUBxy,,,,,0,0,0,8,,,,,,space,1.36046343563,6,1,4.2422366726,2015_Jul_08_1558,None,KRITL,001,31013,
,,,,,,,,"('HALF', 'ADD', 'x', 'y')",ADD,2,"(12, 6)",6,6,8,4,0,half,0,UBxy,,,,,0,1,1,3,,,,,,space,1.02422517211,6,1,6.14917508358,2015_Jul_08_1558,None,KRITL,001,31013,
,,,,,,,,"('ADD', 'DOUBLE', 'DECREASE', 'x', 'y')",double,3,"(1, 2, 7)",7,7,5,2,decrease,ADD,0,BUUxy,,,,,0,2,2,4,,,,,,space,1.39700067298,7,1,6.74244297609,2015_Jul_08_1558,None,KRITL,001,31013,
,,,,,,,,"('ADD', 'TRIPLE', 'DOUBLE', 'DECREASE', 'x', 'y')",triple,4,"(1, 2, 6, 8)",8,8,2,2,double,ADD,decrease,BUUUxy,,,,,0,3,3,11,,,,,,space,2.11867856589,8,1,6.82943339861,2015_Jul_08_1558,None,KRITL,001,31013,
,,,,,,,,"('DECREASE', 'TIMES', 'x', 'y')",TIMES,2,"(9, 8)",8,8,3,3,0,decrease,0,UBxy,,,,,0,4,4,2,,,,,,space,1.23970153715,8,1,2.97207991347,2015_Jul_08_1558,None,KRITL,001,31013,
,,,,,,,,"('INCREASE', 'HALF', 'THIRD', 'TIMES', 'x', 'y')",half,4,"(12, 4, 2, 3)",3,3,4,3,third,increase,TIMES,UUUBxy,,,,,0,5,5,16,,,,,,space,4.20131229307,3,1,6.5870416922,2015_Jul_08_1558,None,KRITL,001,31013,
,,,,,,,,"('DECREASE', 'DOUBLE', 'TIMES', 'THIRD', 'x', 'y')",double,4,"(1, 3, 6, 5)",5,5,3,3,TIMES,decrease,third,UUBUxy,,,,,0,6,6,14,,,,,,space,2.95109715301,7,0,12.5878697058,2015_Jul_08_1558,None,KRITL,001,31013,
,,,,,,,,"('ADD', 'TRIPLE', 'HALF', 'x', 'y')",triple,3,"(2, 6, 8)",8,8,2,4,half,ADD,0,BUUxy,,,,,0,7,7,5,,,,,,space,1.97465774447,7,0,4.28374199152,2015_Jul_08_1558,None,KRITL,001,31013,
,,,,,,,,"('DIVIDE', 'DECREASE', 'x', 'y')",decrease,2,"(8, 2)",2,2,4,9,0,DIVIDE,0,BUxy,,,,,0,8,8,1,,,,,,space,1.50215420021,2,1,4.94602233256,2015_Jul_08_1558,None,KRITL,001,31013,
,,,,,,,,"('DECREASE', 'TRIPLE', 'SUBTRACT', 'DOUBLE', 'x', 'y')",triple,4,"(6, 3, 9, 8)",8,8,3,3,SUBTRACT,decrease,double,UUBUxy,,,,,0,9,9,15,,,,,,space,4.92750331502,2,0,12.0757415464,2015_Jul_08_1558,None,KRITL,001,31013,
,,,,,,,,"('INCREASE', 'ADD', 'HALF', 'x', 'y')",ADD,3,"(1, 4, 5)",5,5,3,2,half,increase,0,UBUxy,,,,,0,10,10,7,,,,,,space,1.8150408005,5,1,4.22884741977,2015_Jul_08_1558,None,KRITL,001,31013,
,,,,,,,,"('DECREASE', 'ADD', 'THIRD', 'HALF', 'x', 'y')",ADD,4,"(3, 1, 7, 6)",6,6,6,6,third,decrease,half,UBUUxy,,,,,0,11,11,12,,,,,,space,10.3895506504,6,1,3.61360602021,2015_Jul_08_1558,None,KRITL,001,31013,
,,,,,,,,"('THIRD', 'HALF', 'INCREASE', 'SUBTRACT', 'x', 'y')",half,4,"(5, 6, 3, 1)",1,1,2,7,increase,third,SUBTRACT,UUUBxy,,,,,0,12,12,17,,,,,,space,5.04940294482,1,1,9.85276651382,2015_Jul_08_1558,None,KRITL,001,31013,
,,,,,,,,"('DECREASE', 'SUBTRACT', 'DOUBLE', 'THIRD', 'x', 'y')",SUBTRACT,4,"(3, 6, 4, 3)",3,3,2,9,double,decrease,third,UBUUxy,,,,,0,13,13,13,,,,,,space,4.31383605119,3,1,6.17574116141,2015_Jul_08_1558,None,KRITL,001,31013,
,,,,,,,,"('HALF', 'INCREASE', 'TIMES', 'x', 'y')",increase,3,"(9, 10, 5)",5,5,3,3,TIMES,half,0,UUBxy,,,,,0,14,14,9,,,,,,space,1.68370300559,5,1,4.43768497757,2015_Jul_08_1558,None,KRITL,001,31013,
,,,,,,,,"('ADD', 'DECREASE', 'x', 'y')",decrease,2,"(2, 7)",7,7,5,3,0,ADD,0,BUxy,,,,,0,15,15,0,,,,,,space,0.965448455448,7,1,3.88124794178,2015_Jul_08_1558,None,KRITL,001,31013,
,,,,,,,,"('ADD', 'DECREASE', 'THIRD', 'DOUBLE', 'x', 'y')",decrease,4,"(18, 6, 5, 9)",9,9,4,9,third,ADD,double,BUUUxy,,,,,0,16,16,10,,,,,,space,3.14269166013,9,1,8.91552791467,2015_Jul_08_1558,None,KRITL,001,31013,
,,,,,,,,"('DOUBLE', 'SUBTRACT', 'INCREASE', 'x', 'y')",SUBTRACT,3,"(4, 1, 2)",2,2,3,3,increase,double,0,UBUxy,,,,,0,17,17,6,,,,,,space,3.68644741921,2,1,8.86756646945,2015_Jul_08_1558,None,KRITL,001,31013,
,,,,,,,,"('INCREASE', 'TRIPLE', 'HALF', 'ADD', 'x', 'y')",triple,4,"(4, 2, 6, 7)",7,7,2,2,half,increase,ADD,UUUBxy,,,,,0,0,0,17,,,,,,space,3.39649847538,7,1,5.68320885717,2015_Jul_08_1558,None,KRITL,001,31013,
,,,,,,,,"('DIVIDE', 'DECREASE', 'THIRD', 'DOUBLE', 'x', 'y')",decrease,4,"(12, 4, 3, 1)",1,1,3,6,third,DIVIDE,double,BUUUxy,,,,,0,1,1,10,,,,,,space,3.94549458764,1,1,3.48151720368,2015_Jul_08_1558,None,KRITL,001,31013,
,,,,,,,,"('DOUBLE', 'TIMES', 'THIRD', 'x', 'y')",TIMES,3,"(1, 4, 8)",8,8,4,3,third,double,0,UBUxy,,,,,0,2,2,6,,,,,,space,5.3274996754,8,1,11.5589487237,2015_Jul_08_1558,None,KRITL,001,31013,
,,,,,,,,"('SUBTRACT', 'DOUBLE', 'DECREASE', 'x', 'y')",double,3,"(8, 16, 7)",7,7,9,9,decrease,SUBTRACT,0,BUUxy,,,,,0,3,3,5,,,,,,space,4.81667477998,7,1,10.1618175144,2015_Jul_08_1558,None,KRITL,001,31013,
,,,,,,,,"('TIMES', 'THIRD', 'x', 'y')",third,2,"(1, 4)",4,4,4,3,0,TIMES,0,BUxy,,,,,0,4,4,1,,,,,,space,1.03417288406,4,1,6.07653596347,2015_Jul_08_1558,None,KRITL,001,31013,
,,,,,,,,"('DECREASE', 'HALF', 'TRIPLE', 'ADD', 'x', 'y')",half,4,"(4, 12, 6, 5)",5,5,2,2,triple,decrease,ADD,UUUBxy,,,,,0,5,5,16,,,,,,space,3.41905957113,7,0,8.08973378628,2015_Jul_08_1558,None,KRITL,001,31013,
,,,,,,,,"('DECREASE', 'DIVIDE', 'TRIPLE', 'DOUBLE', 'x', 'y')",DIVIDE,4,"(6, 18, 2, 1)",1,1,9,3,triple,decrease,double,UBUUxy,,,,,0,6,6,12,,,,,,space,5.88477732349,3,0,11.4747156634,2015_Jul_08_1558,None,KRITL,001,31013,
,,,,,,,,"('ADD', 'DECREASE', 'HALF', 'x', 'y')",decrease,3,"(3, 2, 6)",6,6,4,6,half,ADD,0,BUUxy,,,,,0,7,7,4,,,,,,space,2.01360902991,6,1,5.85353853327,2015_Jul_08_1558,None,KRITL,001,31013,
,,,,,,,,"('TRIPLE', 'SUBTRACT', 'INCREASE', 'HALF', 'x', 'y')",SUBTRACT,4,"(3, 4, 1, 3)",3,3,3,6,increase,triple,half,UBUUxy,,,,,0,8,8,13,,,,,,space,5.67201422532,3,1,7.941782525,2015_Jul_08_1558,None,KRITL,001,31013,
,,,,,,,,"('INCREASE', 'TIMES', 'x', 'y')",TIMES,2,"(8, 9)",9,9,4,2,0,increase,0,UBxy,,,,,0,9,9,2,,,,,,space,2.10010950356,9,1,2.53670609472,2015_Jul_08_1558,None,KRITL,001,31013,
,,,,,,,,"('TIMES', 'DECREASE', 'THIRD', 'DOUBLE', 'x', 'y')",decrease,4,"(6, 2, 1, 2)",2,2,2,3,third,TIMES,double,BUUUxy,,,,,0,10,10,11,,,,,,space,2.80826410765,2,1,6.18381726867,2015_Jul_08_1558,None,KRITL,001,31013,
,,,,,,,,"('DECREASE', 'HALF', 'DIVIDE', 'x', 'y')",half,3,"(4, 2, 1)",1,1,2,8,DIVIDE,decrease,0,UUBxy,,,,,0,11,11,8,,,,,,space,1.79736904454,1,1,4.01015244059,2015_Jul_08_1558,None,KRITL,001,31013,
,,,,,,,,"('THIRD', 'INCREASE', 'SUBTRACT', 'HALF', 'x', 'y')",increase,4,"(4, 2, 3, 1)",1,1,2,8,SUBTRACT,third,half,UUBUxy,,,,,0,12,12,15,,,,,,space,5.26363273992,1,1,7.20342362275,2015_Jul_08_1558,None,KRITL,001,31013,
,,,,,,,,"('SUBTRACT', 'THIRD', 'x', 'y')",third,2,"(3, 1)",1,1,2,9,0,SUBTRACT,0,BUxy,,,,,0,13,13,0,,,,,,space,1.49099316486,1,1,3.22226565659,2015_Jul_08_1558,None,KRITL,001,31013,
,,,,,,,,"('INCREASE', 'DIVIDE', 'HALF', 'x', 'y')",DIVIDE,3,"(2, 1, 2)",2,2,2,4,half,increase,0,UBUxy,,,,,0,14,14,7,,,,,,space,2.54057004151,2,1,3.93706711705,2015_Jul_08_1558,None,KRITL,001,31013,
,,,,,,,,"('TRIPLE', 'HALF', 'TIMES', 'x', 'y')",half,3,"(6, 3, 9)",9,9,3,2,TIMES,triple,0,UUBxy,,,,,0,15,15,9,,,,,,space,1.82780011906,9,1,4.67540677129,2015_Jul_08_1558,None,KRITL,001,31013,
,,,,,,,,"('TRIPLE', 'SUBTRACT', 'x', 'y')",SUBTRACT,2,"(2, 6)",6,6,6,8,0,triple,0,UBxy,,,,,0,16,16,3,,,,,,space,1.01481185437,6,1,1.82153262307,2015_Jul_08_1558,None,KRITL,001,31013,
,,,,,,,,"('INCREASE', 'HALF', 'TIMES', 'TRIPLE', 'x', 'y')",half,4,"(6, 12, 6, 7)",7,7,2,2,TIMES,increase,triple,UUBUxy,,,,,0,17,17,14,,,,,,space,2.55534794944,7,1,8.51654189886,2015_Jul_08_1558,None,KRITL,001,31013,
,,,,,,,,"('TRIPLE', 'HALF', 'ADD', 'DECREASE', 'x', 'y')",half,4,"(1, 4, 2, 6)",6,6,3,2,ADD,triple,decrease,UUBUxy,,,,,0,0,0,15,,,,,,space,2.4329142754,6,1,4.37260401878,2015_Jul_08_1558,None,KRITL,001,31013,
,,,,,,,,"('TIMES', 'INCREASE', 'THIRD', 'DOUBLE', 'x', 'y')",increase,4,"(6, 2, 3, 9)",9,9,3,3,third,TIMES,double,BUUUxy,,,,,0,1,1,11,,,,,,space,5.23425785519,9,1,6.89055277083,2015_Jul_08_1558,None,KRITL,001,31013,
,,,,,,,,"('SUBTRACT', 'HALF', 'INCREASE', 'TRIPLE', 'x', 'y')",half,4,"(15, 16, 8, 3)",3,3,5,5,increase,SUBTRACT,triple,BUUUxy,,,,,0,2,2,10,,,,,,space,2.98372424838,9,0,7.29085009979,2015_Jul_08_1558,None,KRITL,001,31013,
,,,,,,,,"('THIRD', 'ADD', 'x', 'y')",ADD,2,"(9, 3)",3,3,5,4,0,third,0,UBxy,,,,,0,3,3,2,,,,,,space,2.30008038662,3,1,3.57272328633,2015_Jul_08_1558,None,KRITL,001,31013,
,,,,,,,,"('THIRD', 'TIMES', 'DECREASE', 'x', 'y')",TIMES,3,"(3, 15, 5)",5,5,5,4,decrease,third,0,UBUxy,,,,,0,4,4,7,,,,,,space,2.15951685442,5,1,5.29606455566,2015_Jul_08_1558,None,KRITL,001,31013,
,,,,,,,,"('TIMES', 'DECREASE', 'HALF', 'x', 'y')",decrease,3,"(4, 3, 9)",9,9,3,8,half,TIMES,0,BUUxy,,,,,0,5,5,4,,,,,,space,2.62481955008,9,1,3.15336694616,2015_Jul_08_1558,None,KRITL,001,31013,
,,,,,,,,"('TRIPLE', 'HALF', 'DIVIDE', 'x', 'y')",half,3,"(2, 1, 3)",3,3,2,4,DIVIDE,triple,0,UUBxy,,,,,0,6,6,9,,,,,,space,1.60213666705,3,1,3.94927559308,2015_Jul_08_1558,None,KRITL,001,31013,
,,,,,,,,"('INCREASE', 'DIVIDE', 'TRIPLE', 'DOUBLE', 'x', 'y')",DIVIDE,4,"(6, 18, 3, 4)",4,4,6,3,triple,increase,double,UBUUxy,,,,,0,7,7,12,,,,,,space,3.5636242358,4,1,9.54998335923,2015_Jul_08_1558,None,KRITL,001,31013,
,,,,,,,,"('TIMES', 'THIRD', 'HALF', 'x', 'y')",third,3,"(3, 1, 5)",5,5,5,6,half,TIMES,0,BUUxy,,,,,0,8,8,5,,,,,,space,1.10153840447,5,1,4.12700944657,2015_Jul_08_1558,None,KRITL,001,31013,
,,,,,,,,"('TRIPLE', 'SUBTRACT', 'DOUBLE', 'DECREASE', 'x', 'y')",SUBTRACT,4,"(2, 4, 1, 3)",3,3,3,3,double,triple,decrease,UBUUxy,,,,,0,9,9,13,,,,,,space,5.61345273622,3,1,5.53586898207,2015_Jul_08_1558,None,KRITL,001,31013,
,,,,,,,,"('THIRD', 'DECREASE', 'TIMES', 'x', 'y')",decrease,3,"(25, 24, 8)",8,8,5,5,TIMES,thid,0,UUBxy,,,,,0,10,10,8,,,,,,space,1.23023187531,8,1,8.76479234392,2015_Jul_08_1558,None,KRITL,001,31013,
,,,,,,,,"('THIRD', 'INCREASE', 'HALF', 'DIVIDE', 'x', 'y')",increase,4,"(4, 2, 3, 1)",1,1,2,8,half,third,DIVIDE,UUUBxy,,,,,0,11,11,16,,,,,,space,2.61690792565,1,1,4.14041304791,2015_Jul_08_1558,None,KRITL,001,31013,
,,,,,,,,"('TIMES', 'DECREASE', 'x', 'y')",decrease,2,"(2, 4)",4,4,2,3,0,TIMES,0,BUxy,,,,,0,12,12,0,,,,,,space,0.780703783559,4,1,2.04411569654,2015_Jul_08_1558,None,KRITL,001,31013,
,,,,,,,,"('TRIPLE', 'DECREASE', 'HALF', 'TIMES', 'x', 'y')",decrease,4,"(6, 3, 2, 6)",6,6,2,3,half,triple,TIMES,UUUBxy,,,,,0,13,13,17,,,,,,space,7.39976188485,9,0,15.4535267745,2015_Jul_08_1558,None,KRITL,001,31013,
,,,,,,,,"('TIMES', 'INCREASE', 'x', 'y')",increase,2,"(3, 6)",6,6,2,2,0,TIMES,0,BUxy,,,,,0,14,14,1,,,,,,space,0.983886981398,6,1,4.39213933026,2015_Jul_08_1558,None,KRITL,001,31013,
,,,,,,,,"('THIRD', 'DOUBLE', 'ADD', 'INCREASE', 'x', 'y')",double,4,"(10, 12, 24, 8)",8,8,2,9,ADD,third,increase,UUBUxy,,,,,0,15,15,14,,,,,,space,3.03741704553,None,0,,2015_Jul_08_1558,None,KRITL,001,31013,
,,,,,,,,"('THIRD', 'SUBTRACT', 'x', 'y')",SUBTRACT,2,"(3, 1)",1,1,2,5,0,third,0,UBxy,,,,,0,16,16,3,,,,,,space,1.9499510226,1,1,2.73606244188,2015_Jul_08_1558,None,KRITL,001,31013,
,,,,,,,,"('THIRD', 'ADD', 'INCREASE', 'x', 'y')",ADD,3,"(8, 15, 5)",5,5,7,7,increase,third,0,UBUxy,,,,,0,17,17,6,,,,,,space,2.06624668716,5,1,4.48662457074,2015_Jul_08_1558,None,KRITL,001,31013,
,,,,,,,,"('INCREASE', 'DIVIDE', 'x', 'y')",DIVIDE,2,"(4, 5)",5,5,2,8,0,increase,0,UBxy,,,,,0,0,0,3,,,,,,space,3.02766741291,5,1,2.63196300466,2015_Jul_08_1558,None,KRITL,001,31013,
,,,,,,,,"('SUBTRACT', 'INCREASE', 'HALF', 'x', 'y')",increase,3,"(4, 5, 3)",3,3,2,8,half,SUBTRACT,0,BUUxy,,,,,0,1,1,5,,,,,,space,1.22184395058,3,1,3.34648309449,2015_Jul_08_1558,None,KRITL,001,31013,
,,,,,,,,"('THIRD', 'INCREASE', 'HALF', 'TIMES', 'x', 'y')",increase,4,"(28, 14, 15, 5)",5,5,4,7,half,third,TIMES,UUUBxy,,,,,0,2,2,17,,,,,,space,5.73452715209,3,0,11.6568065622,2015_Jul_08_1558,None,KRITL,001,31013,
,,,,,,,,"('DIVIDE', 'TRIPLE', 'DECREASE', 'x', 'y')",triple,3,"(6, 18, 9)",9,9,2,7,decrease,DIVIDE,0,BUUxy,,,,,0,3,3,4,,,,,,space,4.62613331298,9,1,6.88046227377,2015_Jul_08_1558,None,KRITL,001,31013,
,,,,,,,,"('DOUBLE', 'DIVIDE', 'x', 'y')",DIVIDE,2,"(1, 2)",2,2,8,8,0,dpuble,0,UBxy,,,,,0,4,4,2,,,,,,space,2.2062740753,2,1,2.39713610885,2015_Jul_08_1558,None,KRITL,001,31013,
,,,,,,,,"('HALF', 'TIMES', 'DECREASE', 'x', 'y')",TIMES,3,"(8, 16, 8)",8,8,2,9,decrease,half,0,UBUxy,,,,,0,5,5,6,,,,,,space,2.62957800354,8,1,6.61321161137,2015_Jul_08_1558,None,KRITL,001,31013,
,,,,,,,,"('HALF', 'SUBTRACT', 'DECREASE', 'TRIPLE', 'x', 'y')",SUBTRACT,4,"(15, 14, 10, 5)",5,5,4,5,decrease,half,triple,UBUUxy,,,,,0,6,6,12,,,,,,space,1.50990484143,7,0,11.8534947878,2015_Jul_08_1558,None,KRITL,001,31013,
,,,,,,,,"('DECREASE', 'THIRD', 'DOUBLE', 'ADD', 'x', 'y')",third,4,"(9, 18, 6, 5)",5,5,4,5,double,decrease,ADD,UUUBxy,,,,,0,7,7,16,,,,,,space,3.80434731636,2,0,9.12809503329,2015_Jul_08_1558,None,KRITL,001,31013,
,,,,,,,,"('TRIPLE', 'INCREASE', 'DIVIDE', 'DOUBLE', 'x', 'y')",increase,4,"(16, 2, 3, 9)",9,9,8,8,DIVIDE,triple,double,UUBUxy,,,,,0,8,8,15,,,,,,space,2.82118965886,9,1,10.3319337127,2015_Jul_08_1558,None,KRITL,001,31013,
,,,,,,,,"('TRIPLE', 'INCREASE', 'SUBTRACT', 'x', 'y')",increase,3,"(1, 2, 6)",6,6,2,3,SUBTRACT,triple,0,UUBxy,,,,,0,9,9,9,,,,,,space,1.61546852587,6,1,3.60480443866,2015_Jul_08_1558,None,KRITL,001,31013,
,,,,,,,,"('TIMES', 'HALF', 'INCREASE', 'THIRD', 'x', 'y')",half,4,"(1, 2, 1, 9)",9,9,9,3,increase,TIMES,third,BUUUxy,,,,,0,10,10,11,,,,,,space,2.87371987733,9,1,4.61777163553,2015_Jul_08_1558,None,KRITL,001,31013,
,,,,,,,,"('TRIPLE', 'HALF', 'ADD', 'x', 'y')",half,3,"(6, 3, 9)",9,9,3,3,ADD,triple,0,UUBxy,,,,,0,11,11,8,,,,,,space,1.29477179056,9,1,4.48356274022,2015_Jul_08_1558,None,KRITL,001,31013,
,,,,,,,,"('SUBTRACT', 'TRIPLE', 'x', 'y')",triple,2,"(12, 9)",9,9,3,4,0,SUBTRACT,0,BUxy,,,,,0,12,12,1,,,,,,space,1.08115898106,1,0,9.95769431459,2015_Jul_08_1558,None,KRITL,001,31013,
,,,,,,,,"('DIVIDE', 'DOUBLE', 'INCREASE', 'TRIPLE', 'x', 'y')",double,4,"(9, 10, 20, 5)",5,5,4,3,increase,DIVIDE,triple,BUUUxy,,,,,0,13,13,10,,,,,,space,1.84487413739,5,1,8.2525070509,2015_Jul_08_1558,None,KRITL,001,31013,
,,,,,,,,"('INCREASE', 'TIMES', 'TRIPLE', 'HALF', 'x', 'y')",TIMES,4,"(1, 3, 6, 7)",7,7,2,2,triple,increase,half,UBUUxy,,,,,0,14,14,13,,,,,,space,2.82470504202,6,0,6.55266022991,2015_Jul_08_1558,None,KRITL,001,31013,
,,,,,,,,"('ADD', 'HALF', 'x', 'y')",half,2,"(2, 7)",7,7,5,4,0,ADD,0,BUxy,,,,,0,15,15,0,,,,,,space,0.938747641689,7,1,3.0145318836,2015_Jul_08_1558,None,KRITL,001,31013,
,,,,,,,,"('TRIPLE', 'DOUBLE', 'SUBTRACT', 'INCREASE', 'x', 'y')",double,4,"(5, 1, 2, 6)",6,6,4,4,SUBTRACT,triple,increase,UUBUxy,,,,,0,16,16,14,,,,,,space,5.92077806681,6,1,6.51694505679,2015_Jul_08_1558,None,KRITL,001,31013,
,,,,,,,,"('INCREASE', 'DIVIDE', 'TRIPLE', 'x', 'y')",DIVIDE,3,"(6, 2, 3)",3,3,3,2,triple,increase,0,UBUxy,,,,,0,17,17,7,,,,,,space,1.34113600246,3,1,4.9416414897,2015_Jul_08_1558,None,KRITL,001,31013,
