operationc,operationb,operationa,correctresponse,valuey,operationd,condition,valuex,Rule,Operatora,Length,Intermediate,CorrectResponse,Result,Y,X,Operatorc,Operatorb,Operatord,Structure,practice_trials.thisRepN,practice_trials.thisTrialN,practice_trials.thisN,practice_trials.thisIndex,block.thisRepN,block.thisTrialN,block.thisN,block.thisIndex,practice_encoding.keys,practice_encoding.rt,practice_execution.keys,practice_execution.corr,practice_execution.rt,encoding.keys,encoding.rt,execution.keys,execution.corr,execution.rt,date,frameRate,expName,session,participant,
ADD,triple ,half,8,2,0,3,4,,,,,,,,,,,,,0,0,0,3,,,,,['space'],[4.462007439520676],None,0,,,,,,,2015_Jul_16_1551,None,KRITL,001,31026,
increase,DIVIDE,double,9,8,triple,4,8,,,,,,,,,,,,,0,1,1,5,,,,,['space'],[7.257210210111225],None,0,,,,,,,2015_Jul_16_1551,None,KRITL,001,31026,
0,decrease,TIMES,8,3,0,2,3,,,,,,,,,,,,,0,2,2,1,,,,,['space'],[3.6332669685943983],1,0,10.6013618479,,,,,,2015_Jul_16_1551,None,KRITL,001,31026,
increase,DIVIDE,triple,3,3,0,3,2,,,,,,,,,,,,,0,3,3,4,,,,,['space'],[6.808239960169885],8,0,8.60844265901,,,,,,2015_Jul_16_1551,None,KRITL,001,31026,
0,ADD,half,7,5,0,2,4,,,,,,,,,,,,,0,4,4,2,,,,,['space'],[4.677010303988936],7,1,3.0778332781,,,,,,2015_Jul_16_1551,None,KRITL,001,31026,
0,ADD,decrease,7,5,0,2,3,,,,,,,,,,,,,0,5,5,0,,,,,['space'],[4.154659361287486],7,1,2.67043623999,,,,,,2015_Jul_16_1551,None,KRITL,001,31026,
,,,,,,,,"('DIVIDE', 'INCREASE', 'DOUBLE', 'THIRD', 'x', 'y')",increase,4,"(2, 4, 5, 1)",1,1,5,6,double,DIVIDE,third,BUUUxy,,,,,0,0,0,11,,,,,,space,4.66598260473,8,0,13.6279842698,2015_Jul_16_1551,None,KRITL,001,31026,
,,,,,,,,"('DOUBLE', 'TRIPLE', 'DIVIDE', 'DECREASE', 'x', 'y')",triple,4,"(8, 1, 3, 6)",6,6,8,9,DIVIDE,double,decrease,UUBUxy,,,,,0,1,1,15,,,,,,space,4.72076273841,6,1,4.60902044871,2015_Jul_16_1551,None,KRITL,001,31026,
,,,,,,,,"('HALF', 'SUBTRACT', 'TRIPLE', 'x', 'y')",SUBTRACT,3,"(9, 2, 1)",1,1,7,3,triple,half,0,UBUxy,,,,,0,2,2,6,,,,,,space,2.83433918671,1,1,2.80952362622,2015_Jul_16_1551,None,KRITL,001,31026,
,,,,,,,,"('INCREASE', 'DIVIDE', 'THIRD', 'x', 'y')",DIVIDE,3,"(3, 1, 2)",2,2,3,9,third,increase,0,UBUxy,,,,,0,3,3,7,,,,,,space,3.76838786872,2,1,3.33028538473,2015_Jul_16_1551,None,KRITL,001,31026,
,,,,,,,,"('DOUBLE', 'TRIPLE', 'SUBTRACT', 'x', 'y')",triple,3,"(1, 3, 6)",6,6,3,4,SUBTRACT,double,0,UUBxy,,,,,0,4,4,9,,,,,,space,2.55608077296,6,1,2.85680229268,2015_Jul_16_1551,None,KRITL,001,31026,
,,,,,,,,"('DOUBLE', 'DECREASE', 'SUBTRACT', 'x', 'y')",decrease,3,"(5, 4, 8)",8,8,2,7,SUBTRACT,double,0,UUBxy,,,,,0,5,5,8,,,,,,space,3.80534891183,8,1,2.87659657715,2015_Jul_16_1551,None,KRITL,001,31026,
,,,,,,,,"('DECREASE', 'HALF', 'TRIPLE', 'DIVIDE', 'x', 'y')",half,4,"(4, 12, 6, 5)",5,5,2,8,triple,decrease,DIVIDE,UUUBxy,,,,,0,6,6,16,,,,,,space,5.94044986407,5,1,4.36922757111,2015_Jul_16_1551,None,KRITL,001,31026,
,,,,,,,,"('DECREASE', 'THIRD', 'TIMES', 'HALF', 'x', 'y')",third,4,"(2, 12, 4, 3)",3,3,6,4,TIMES,decrease,half,UUBUxy,,,,,0,7,7,14,,,,,,space,5.35203596504,3,1,5.06494062344,2015_Jul_16_1551,None,KRITL,001,31026,
,,,,,,,,"('DOUBLE', 'DECREASE', 'TRIPLE', 'DIVIDE', 'x', 'y')",decrease,4,"(1, 3, 2, 4)",4,4,4,4,triple,double,DIVIDE,UUUBxy,,,,,0,8,8,17,,,,,,space,5.71781569594,4,1,5.84225186102,2015_Jul_16_1551,None,KRITL,001,31026,
,,,,,,,,"('DECREASE', 'TIMES', 'DOUBLE', 'THIRD', 'x', 'y')",TIMES,4,"(1, 2, 8, 7)",7,7,4,3,double,decrease,third,UBUUxy,,,,,0,9,9,13,,,,,,space,4.17365082954,7,1,5.2226996113,2015_Jul_16_1551,None,KRITL,001,31026,
,,,,,,,,"('ADD', 'DOUBLE', 'x', 'y')",double,2,"(4, 8)",8,8,4,2,0,ADD,0,BUxy,,,,,0,10,10,0,,,,,,space,1.93452498231,8,1,2.22086790243,2015_Jul_16_1551,None,KRITL,001,31026,
,,,,,,,,"('DIVIDE', 'DOUBLE', 'x', 'y')",double,2,"(12, 2)",2,2,6,6,0,DIVIDE,0,BUxy,,,,,0,11,11,1,,,,,,space,1.4865846749,2,1,2.10296905517,2015_Jul_16_1551,None,KRITL,001,31026,
,,,,,,,,"('DECREASE', 'ADD', 'DOUBLE', 'THIRD', 'x', 'y')",ADD,4,"(3, 6, 10, 9)",9,9,4,9,double,decrease ,third,UBUUxy,,,,,0,12,12,12,,,,,,space,4.66029779793,9,1,4.7179080863,2015_Jul_16_1551,None,KRITL,001,31026,
,,,,,,,,"('DIVIDE', 'DOUBLE', 'THIRD', 'x', 'y')",double,3,"(2, 4, 1)",1,1,4,6,third,DIVIDE,0,BUUxy,,,,,0,13,13,4,,,,,,space,1.86146135652,1,1,3.96681331302,2015_Jul_16_1551,None,KRITL,001,31026,
,,,,,,,,"('SUBTRACT', 'HALF', 'TRIPLE', 'x', 'y')",half,3,"(12, 6, 2)",2,2,4,4,triple,SUBTRACT,0,BUUxy,,,,,0,14,14,5,,,,,,space,4.10481406265,2,1,7.06635727562,2015_Jul_16_1551,None,KRITL,001,31026,
,,,,,,,,"('HALF', 'TIMES', 'x', 'y')",TIMES,2,"(16, 8)",8,8,4,4,0,half,0,UBxy,,,,,0,15,15,3,,,,,,space,1.55545573818,2,0,15.1284407972,2015_Jul_16_1551,None,KRITL,001,31026,
,,,,,,,,"('DOUBLE', 'SUBTRACT', 'x', 'y')",SUBTRACT,2,"(1, 2)",2,2,7,8,0,double,0,UBxy,,,,,0,16,16,2,,,,,,space,4.12323928998,2,1,4.52043139299,2015_Jul_16_1551,None,KRITL,001,31026,
,,,,,,,,"('ADD', 'THIRD', 'INCREASE', 'HALF', 'x', 'y')",third,4,"(2, 3, 1, 7)",7,7,6,4,increase,ADD,half,BUUUxy,,,,,0,17,17,10,,,,,,space,3.84448462802,7,1,6.99933541936,2015_Jul_16_1551,None,KRITL,001,31026,
,,,,,,,,"('DIVIDE', 'DECREASE', 'THIRD', 'DOUBLE', 'x', 'y')",decrease,4,"(12, 4, 3, 1)",1,1,3,6,third,DIVIDE,double,BUUUxy,,,,,0,0,0,10,,,,,,space,9.34900633119,1,1,14.0652429919,2015_Jul_16_1551,None,KRITL,001,31026,
,,,,,,,,"('SUBTRACT', 'DOUBLE', 'DECREASE', 'x', 'y')",double,3,"(8, 16, 7)",7,7,9,9,decrease,SUBTRACT,0,BUUxy,,,,,0,1,1,5,,,,,,space,5.19151961493,7,1,4.40755977113,2015_Jul_16_1551,None,KRITL,001,31026,
,,,,,,,,"('DECREASE', 'DIVIDE', 'TRIPLE', 'DOUBLE', 'x', 'y')",DIVIDE,4,"(6, 18, 2, 1)",1,1,9,3,triple,decrease,double,UBUUxy,,,,,0,2,2,12,,,,,,space,7.6017125113,1,1,5.589084779,2015_Jul_16_1551,None,KRITL,001,31026,
,,,,,,,,"('INCREASE', 'TRIPLE', 'HALF', 'ADD', 'x', 'y')",triple,4,"(4, 2, 6, 7)",7,7,2,2,half,increase,ADD,UUUBxy,,,,,0,3,3,17,,,,,,space,8.48340280692,5,0,4.43662983767,2015_Jul_16_1551,None,KRITL,001,31026,
,,,,,,,,"('TRIPLE', 'SUBTRACT', 'x', 'y')",SUBTRACT,2,"(2, 6)",6,6,6,8,0,triple,0,UBxy,,,,,0,4,4,3,,,,,,space,1.29301812357,6,1,2.25303969531,2015_Jul_16_1551,None,KRITL,001,31026,
,,,,,,,,"('DECREASE', 'HALF', 'TRIPLE', 'ADD', 'x', 'y')",half,4,"(4, 12, 6, 5)",5,5,2,2,triple,decrease,ADD,UUUBxy,,,,,0,5,5,16,,,,,,space,3.29944345308,5,1,4.18660962729,2015_Jul_16_1551,None,KRITL,001,31026,
,,,,,,,,"('TRIPLE', 'HALF', 'TIMES', 'x', 'y')",half,3,"(6, 3, 9)",9,9,3,2,TIMES,triple,0,UUBxy,,,,,0,6,6,9,,,,,,space,2.16354773378,9,1,4.9355993702,2015_Jul_16_1551,None,KRITL,001,31026,
,,,,,,,,"('SUBTRACT', 'THIRD', 'x', 'y')",third,2,"(3, 1)",1,1,2,9,0,SUBTRACT,0,BUxy,,,,,0,7,7,0,,,,,,space,1.91745411367,1,1,2.0373848489,2015_Jul_16_1551,None,KRITL,001,31026,
,,,,,,,,"('INCREASE', 'TIMES', 'x', 'y')",TIMES,2,"(8, 9)",9,9,4,2,0,increase,0,UBxy,,,,,0,8,8,2,,,,,,space,2.46508921793,9,1,4.31701161983,2015_Jul_16_1551,None,KRITL,001,31026,
,,,,,,,,"('INCREASE', 'HALF', 'TIMES', 'TRIPLE', 'x', 'y')",half,4,"(6, 12, 6, 7)",7,7,2,2,TIMES,increase,triple,UUBUxy,,,,,0,9,9,14,,,,,,space,8.79684409933,7,1,6.2218439506,2015_Jul_16_1551,None,KRITL,001,31026,
,,,,,,,,"('DOUBLE', 'TIMES', 'THIRD', 'x', 'y')",TIMES,3,"(1, 4, 8)",8,8,4,3,third,double,0,UBUxy,,,,,0,10,10,6,,,,,,space,3.48091106693,8,1,3.92575209777,2015_Jul_16_1551,None,KRITL,001,31026,
,,,,,,,,"('ADD', 'DECREASE', 'HALF', 'x', 'y')",decrease,3,"(3, 2, 6)",6,6,4,6,half,ADD,0,BUUxy,,,,,0,11,11,4,,,,,,space,2.2829535238,6,1,3.07683938183,2015_Jul_16_1551,None,KRITL,001,31026,
,,,,,,,,"('DECREASE', 'HALF', 'DIVIDE', 'x', 'y')",half,3,"(4, 2, 1)",1,1,2,8,DIVIDE,decrease,0,UUBxy,,,,,0,12,12,8,,,,,,space,5.24932343312,1,1,2.80714912398,2015_Jul_16_1551,None,KRITL,001,31026,
,,,,,,,,"('TIMES', 'DECREASE', 'THIRD', 'DOUBLE', 'x', 'y')",decrease,4,"(6, 2, 1, 2)",2,2,2,3,third,TIMES,double,BUUUxy,,,,,0,13,13,11,,,,,,space,7.92041200501,1,0,8.35850084043,2015_Jul_16_1551,None,KRITL,001,31026,
,,,,,,,,"('TIMES', 'THIRD', 'x', 'y')",third,2,"(1, 4)",4,4,4,3,0,TIMES,0,BUxy,,,,,0,14,14,1,,,,,,space,2.11339516719,4,1,1.78234406241,2015_Jul_16_1551,None,KRITL,001,31026,
,,,,,,,,"('INCREASE', 'DIVIDE', 'HALF', 'x', 'y')",DIVIDE,3,"(2, 1, 2)",2,2,2,4,half,increase,0,UBUxy,,,,,0,15,15,7,,,,,,space,2.97224754599,2,1,4.02448344513,2015_Jul_16_1551,None,KRITL,001,31026,
,,,,,,,,"('THIRD', 'INCREASE', 'SUBTRACT', 'HALF', 'x', 'y')",increase,4,"(4, 2, 3, 1)",1,1,2,8,SUBTRACT,third,half,UUBUxy,,,,,0,16,16,15,,,,,,space,6.56507938399,1,1,9.92414471548,2015_Jul_16_1551,None,KRITL,001,31026,
,,,,,,,,"('TRIPLE', 'SUBTRACT', 'INCREASE', 'HALF', 'x', 'y')",SUBTRACT,4,"(3, 4, 1, 3)",3,3,3,6,increase,triple,half,UBUUxy,,,,,0,17,17,13,,,,,,space,4.62166252951,3,1,11.2975400017,2015_Jul_16_1551,None,KRITL,001,31026,
,,,,,,,,"('INCREASE', 'SUBTRACT', 'x', 'y')",SUBTRACT,2,"(3, 4)",4,4,3,6,0,increase,0,UBxy,,,,,0,0,0,2,,,,,,space,1.5600518086,4,1,2.44985355777,2015_Jul_16_1551,None,KRITL,001,31026,
,,,,,,,,"('THIRD', 'TIMES', 'HALF', 'x', 'y')",TIMES,3,"(3, 18, 6)",6,6,6,6,half,third,0,UBUxy,,,,,0,1,1,7,,,,,,space,3.14983896431,6,1,5.34413238979,2015_Jul_16_1551,None,KRITL,001,31026,
,,,,,,,,"('TIMES', 'DOUBLE', 'x', 'y')",double,2,"(4, 8)",8,8,2,2,0,TIMES,0,BUxy,,,,,0,2,2,1,,,,,,space,1.67915732993,8,1,1.80297930911,2015_Jul_16_1551,None,KRITL,001,31026,
,,,,,,,,"('THIRD', 'DIVIDE', 'x', 'y')",DIVIDE,2,"(3, 1)",1,1,2,6,0,third,0,UBxy,,,,,0,3,3,3,,,,,,space,2.15022777373,1,1,1.63630500159,2015_Jul_16_1551,None,KRITL,001,31026,
,,,,,,,,"('HALF', 'TRIPLE', 'INCREASE', 'SUBTRACT', 'x', 'y')",triple,4,"(1, 2, 6, 3)",3,3,2,3,increase,half,SUBTRACT,UUUBxy,,,,,0,4,4,17,,,,,,space,7.68578388845,3,1,5.31598692675,2015_Jul_16_1551,None,KRITL,001,31026,
,,,,,,,,"('DIVIDE', 'THIRD', 'x', 'y')",third,2,"(3, 1)",1,1,3,9,0,DIVIDE,0,BUxy,,,,,0,5,5,0,,,,,,space,2.06896450356,1,1,1.65082498643,2015_Jul_16_1551,None,KRITL,001,31026,
,,,,,,,,"('INCREASE', 'ADD', 'HALF', 'TRIPLE', 'x', 'y')",ADD,4,"(6, 3, 6, 7)",7,7,3,2,half,increase,triple,UBUUxy,,,,,0,6,6,13,,,,,,space,4.98338093419,7,1,13.5084199464,2015_Jul_16_1551,None,KRITL,001,31026,
,,,,,,,,"('DOUBLE', 'DECREASE', 'ADD', 'x', 'y')",decrease,3,"(4, 3, 6)",6,6,2,2,ADD,double,0,UUBxy,,,,,0,7,7,8,,,,,,space,2.63521031581,6,1,2.09806431699,2015_Jul_16_1551,None,KRITL,001,31026,
,,,,,,,,"('DECREASE', 'TRIPLE', 'HALF', 'SUBTRACT', 'x', 'y')",triple,4,"(4, 2, 6, 5)",5,5,2,6,half,decrease,SUBTRACT,UUUBxy,,,,,0,8,8,16,,,,,,space,7.54673744796,7,0,9.43152352053,2015_Jul_16_1551,None,KRITL,001,31026,
,,,,,,,,"('SUBTRACT', 'TRIPLE', 'DECREASE', 'x', 'y')",triple,3,"(4, 12, 3)",3,3,9,5,decrease,SUBTRACT,0,BUUxy,,,,,0,9,9,4,,,,,,space,2.63076262991,3,1,4.04592850737,2015_Jul_16_1551,None,KRITL,001,31026,
,,,,,,,,"('SUBTRACT', 'DOUBLE', 'TRIPLE', 'DECREASE', 'x', 'y')",double,4,"(2, 6, 12, 8)",8,8,4,3,triple,SUBTRACT,decrease,BUUUxy,,,,,0,10,10,10,,,,,,space,8.83745841123,8,1,4.80704483489,2015_Jul_16_1551,None,KRITL,001,31026,
,,,,,,,,"('THIRD', 'DECREASE', 'TIMES', 'HALF', 'x', 'y')",decrease,4,"(4, 16, 15, 5)",5,5,4,8,TIMES,third,half,UUBUxy,,,,,0,11,11,15,,,,,,space,4.01738618573,5,1,4.21022271324,2015_Jul_16_1551,None,KRITL,001,31026,
,,,,,,,,"('DECREASE', 'TRIPLE', 'DIVIDE', 'DOUBLE', 'x', 'y')",triple,4,"(6, 2, 6, 5)",5,5,3,3,DIVIDE,decrease,double,UUBUxy,,,,,0,12,12,14,,,,,,space,5.07573629692,5,1,4.43660988976,2015_Jul_16_1551,None,KRITL,001,31026,
,,,,,,,,"('TIMES', 'HALF', 'INCREASE', 'x', 'y')",half,3,"(6, 3, 9)",9,9,3,5,increase,TIMES,0,BUUxy,,,,,0,13,13,5,,,,,,space,2.96031554107,9,1,4.12294077114,2015_Jul_16_1551,None,KRITL,001,31026,
,,,,,,,,"('DOUBLE', 'THIRD', 'TIMES', 'x', 'y')",third,3,"(12, 4, 8)",8,8,6,2,TIMES,double,0,UUBxy,,,,,0,14,14,9,,,,,,space,3.26848743335,8,1,4.65436276724,2015_Jul_16_1551,None,KRITL,001,31026,
,,,,,,,,"('THIRD', 'DIVIDE', 'DECREASE', 'x', 'y')",DIVIDE,3,"(6, 3, 1)",1,1,2,7,decrease,third,0,UBUxy,,,,,0,15,15,6,,,,,,space,2.58320539253,1,1,2.74032709686,2015_Jul_16_1551,None,KRITL,001,31026,
,,,,,,,,"('DOUBLE', 'DIVIDE', 'TRIPLE', 'INCREASE', 'x', 'y')",DIVIDE,4,"(5, 15, 3, 6)",6,6,5,4,triple,double,increase,UBUUxy,,,,,0,16,16,12,,,,,,space,7.11265639428,6,1,5.04135238487,2015_Jul_16_1551,None,KRITL,001,31026,
,,,,,,,,"('SUBTRACT', 'TRIPLE', 'DECREASE', 'DOUBLE', 'x', 'y')",triple,4,"(4, 3, 9, 1)",1,1,8,2,decrease,SUBTRACT,double,BUUUxy,,,,,0,17,17,11,,,,,,space,5.55080647336,1,1,5.01641643693,2015_Jul_16_1551,None,KRITL,001,31026,
,,,,,,,,"('SUBTRACT', 'DECREASE', 'x', 'y')",decrease,2,"(5, 3)",3,3,2,6,0,SUBTRACT,0,BUxy,,,,,0,0,0,1,,,,,,space,1.53218176684,3,1,1.66642075899,2015_Jul_16_1551,None,KRITL,001,31026,
,,,,,,,,"('THIRD', 'HALF', 'ADD', 'x', 'y')",half,3,"(6, 3, 1)",1,1,3,3,ADD,third,0,UUBxy,,,,,0,1,1,9,,,,,,space,1.9114931857,1,1,7.02389795624,2015_Jul_16_1551,None,KRITL,001,31026,
,,,,,,,,"('SUBTRACT', 'DECREASE', 'TRIPLE', 'DOUBLE', 'x', 'y')",decrease,4,"(6, 18, 17, 8)",8,8,9,3,triple,SUBTRACT,double,BUUUxy,,,,,0,2,2,11,,,,,,space,2.56059985139,8,1,11.1457135948,2015_Jul_16_1551,None,KRITL,001,31026,
,,,,,,,,"('ADD', 'HALF', 'THIRD', 'x', 'y')",half,3,"(2, 1, 9)",9,9,8,6,third,ADD,0,BUUxy,,,,,0,3,3,4,,,,,,space,3.30941006306,9,1,4.65010301175,2015_Jul_16_1551,None,KRITL,001,31026,
,,,,,,,,"('THIRD', 'DOUBLE', 'INCREASE', 'TIMES', 'x', 'y')",double,4,"(8, 9, 18, 6)",6,6,4,2,increase,third,TIMES,UUUBxy,,,,,0,4,4,17,,,,,,space,10.0740641714,6,1,4.90767753383,2015_Jul_16_1551,None,KRITL,001,31026,
,,,,,,,,"('DECREASE', 'DIVIDE', 'x', 'y')",DIVIDE,2,"(2, 1)",1,1,4,8,0,decrease,0,UBxy,,,,,0,5,5,2,,,,,,space,0.951931815915,1,1,3.01042471218,2015_Jul_16_1551,None,KRITL,001,31026,
,,,,,,,,"('INCREASE', 'ADD', 'x', 'y')",ADD,2,"(5, 6)",6,6,2,3,0,increase,0,UBxy,,,,,0,6,6,3,,,,,,space,1.20623137974,6,1,1.51128264767,2015_Jul_16_1551,None,KRITL,001,31026,
,,,,,,,,"('THIRD', 'TIMES', 'DOUBLE', 'DECREASE', 'x', 'y')",TIMES,4,"(1, 2, 6, 2)",2,2,3,2,double,third,decrease,UBUUxy,,,,,0,7,7,13,,,,,,space,4.25855931934,2,1,14.437805015,2015_Jul_16_1551,None,KRITL,001,31026,
,,,,,,,,"('DOUBLE', 'ADD', 'INCREASE', 'THIRD', 'x', 'y')",ADD,4,"(1, 2, 4, 8)",8,8,2,3,increase,double,third,UBUUxy,,,,,0,8,8,12,,,,,,space,2.74512369634,8,1,3.8401657287,2015_Jul_16_1551,None,KRITL,001,31026,
,,,,,,,,"('DIVIDE', 'DECREASE', 'TRIPLE', 'x', 'y')",decrease,3,"(9, 8, 4)",4,4,2,3,triple,DIVIDE,0,BUUxy,,,,,0,9,9,5,,,,,,space,4.51616148854,4,1,3.78869414979,2015_Jul_16_1551,None,KRITL,001,31026,
,,,,,,,,"('THIRD', 'DOUBLE', 'ADD', 'DECREASE', 'x', 'y')",double,4,"(5, 12, 24, 8)",8,8,7,6,ADD,third,decrease,UUBUxy,,,,,0,10,10,14,,,,,,space,9.24619230983,8,1,6.41449884704,2015_Jul_16_1551,None,KRITL,001,31026,
,,,,,,,,"('HALF', 'ADD', 'TRIPLE', 'x', 'y')",ADD,3,"(9, 12, 6)",6,6,3,3,triple,half,0,UBUxy,,,,,0,11,11,6,,,,,,space,1.36284213743,6,1,8.39815590243,2015_Jul_16_1551,None,KRITL,001,31026,
,,,,,,,,"('THIRD', 'INCREASE', 'DIVIDE', 'DOUBLE', 'x', 'y')",increase,4,"(18, 2, 3, 1)",1,1,9,9,DIVIDE,third,double,UUBUxy,,,,,0,12,12,15,,,,,,space,5.49014135374,1,1,4.0688798124,2015_Jul_16_1551,None,KRITL,001,31026,
,,,,,,,,"('INCREASE', 'TRIPLE', 'DIVIDE', 'x', 'y')",triple,3,"(2, 6, 7)",7,7,3,6,DIVIDE,increase,0,UUBxy,,,,,0,13,13,8,,,,,,space,2.23026302207,7,1,2.85609886609,2015_Jul_16_1551,None,KRITL,001,31026,
,,,,,,,,"('DIVIDE', 'INCREASE', 'x', 'y')",increase,2,"(4, 2)",2,2,2,3,0,DIVIDE,0,BUxy,,,,,0,14,14,0,,,,,,space,1.06994090165,2,1,2.12979130627,2015_Jul_16_1551,None,KRITL,001,31026,
,,,,,,,,"('ADD', 'DOUBLE', 'DECREASE', 'THIRD', 'x', 'y')",double,4,"(2, 1, 2, 8)",8,8,6,6,decrease,ADD,third,BUUUxy,,,,,0,15,15,10,,,,,,space,3.75102723029,8,1,3.55848817178,2015_Jul_16_1551,None,KRITL,001,31026,
,,,,,,,,"('HALF', 'TRIPLE', 'INCREASE', 'DIVIDE', 'x', 'y')",triple,4,"(3, 4, 12, 6)",6,6,3,9,increase,half,DIVIDE,UUUBxy,,,,,0,16,16,16,,,,,,space,2.89219864909,6,1,4.94614306997,2015_Jul_16_1551,None,KRITL,001,31026,
,,,,,,,,"('INCREASE', 'SUBTRACT', 'HALF', 'x', 'y')",SUBTRACT,3,"(4, 2, 3)",3,3,2,8,half,increase,0,UBUxy,,,,,0,17,17,7,,,,,,space,2.16844827242,3,1,2.5400825424,2015_Jul_16_1551,None,KRITL,001,31026,
,,,,,,,,"('TRIPLE', 'DOUBLE', 'SUBTRACT', 'INCREASE', 'x', 'y')",double,4,"(5, 1, 2, 6)",6,6,4,4,SUBTRACT,triple,increase,UUBUxy,,,,,0,0,0,14,,,,,,space,8.22779647945,6,1,3.78732754238,2015_Jul_16_1551,None,KRITL,001,31026,
,,,,,,,,"('SUBTRACT', 'TRIPLE', 'x', 'y')",triple,2,"(12, 9)",9,9,3,4,0,SUBTRACT,0,BUxy,,,,,0,1,1,1,,,,,,space,1.37678538245,9,1,1.835399926,2015_Jul_16_1551,None,KRITL,001,31026,
,,,,,,,,"('DIVIDE', 'TRIPLE', 'DECREASE', 'x', 'y')",triple,3,"(6, 18, 9)",9,9,2,7,decrease,DIVIDE,0,BUUxy,,,,,0,2,2,4,,,,,,space,3.78929958658,9,1,3.1494172583,2015_Jul_16_1551,None,KRITL,001,31026,
,,,,,,,,"('INCREASE', 'DIVIDE', 'x', 'y')",DIVIDE,2,"(4, 5)",5,5,2,8,0,increase,0,UBxy,,,,,0,3,3,3,,,,,,space,0.964139941992,5,1,2.40914650555,2015_Jul_16_1551,None,KRITL,001,31026,
,,,,,,,,"('ADD', 'HALF', 'x', 'y')",half,2,"(2, 7)",7,7,5,4,0,ADD,0,BUxy,,,,,0,4,4,0,,,,,,space,2.31983162556,7,1,1.68485263563,2015_Jul_16_1551,None,KRITL,001,31026,
,,,,,,,,"('DIVIDE', 'DOUBLE', 'INCREASE', 'TRIPLE', 'x', 'y')",double,4,"(9, 10, 20, 5)",5,5,4,3,increase,DIVIDE,triple,BUUUxy,,,,,0,5,5,10,,,,,,space,3.25458583399,5,1,6.70951421221,2015_Jul_16_1551,None,KRITL,001,31026,
,,,,,,,,"('HALF', 'SUBTRACT', 'DECREASE', 'TRIPLE', 'x', 'y')",SUBTRACT,4,"(15, 14, 10, 5)",5,5,4,5,decrease,half,triple,UBUUxy,,,,,0,6,6,12,,,,,,space,3.94782814413,3,0,12.3796109876,2015_Jul_16_1551,None,KRITL,001,31026,
,,,,,,,,"('TRIPLE', 'INCREASE', 'SUBTRACT', 'x', 'y')",increase,3,"(1, 2, 6)",6,6,2,3,SUBTRACT,triple,0,UUBxy,,,,,0,7,7,9,,,,,,space,1.37364516011,6,1,3.15783457996,2015_Jul_16_1551,None,KRITL,001,31026,
,,,,,,,,"('TIMES', 'HALF', 'INCREASE', 'THIRD', 'x', 'y')",half,4,"(1, 2, 1, 9)",9,9,9,3,increase,TIMES,third,BUUUxy,,,,,0,8,8,11,,,,,,space,3.37906049503,4,0,18.5561346673,2015_Jul_16_1551,None,KRITL,001,31026,
,,,,,,,,"('INCREASE', 'TIMES', 'TRIPLE', 'HALF', 'x', 'y')",TIMES,4,"(1, 3, 6, 7)",7,7,2,2,triple,increase,half,UBUUxy,,,,,0,9,9,13,,,,,,space,5.5658612024,5,0,12.4029042069,2015_Jul_16_1551,None,KRITL,001,31026,
,,,,,,,,"('HALF', 'TIMES', 'DECREASE', 'x', 'y')",TIMES,3,"(8, 16, 8)",8,8,2,9,decrease,half,0,UBUxy,,,,,0,10,10,6,,,,,,space,3.4585414012,8,1,2.38628829084,2015_Jul_16_1551,None,KRITL,001,31026,
,,,,,,,,"('TRIPLE', 'HALF', 'ADD', 'x', 'y')",half,3,"(6, 3, 9)",9,9,3,3,ADD,triple,0,UUBxy,,,,,0,11,11,8,,,,,,space,1.91067742082,9,1,2.94235401537,2015_Jul_16_1551,None,KRITL,001,31026,
,,,,,,,,"('THIRD', 'INCREASE', 'HALF', 'TIMES', 'x', 'y')",increase,4,"(28, 14, 15, 5)",5,5,4,7,half,third,TIMES,UUUBxy,,,,,0,12,12,17,,,,,,space,4.43064546213,None,0,,2015_Jul_16_1551,None,KRITL,001,31026,
,,,,,,,,"('INCREASE', 'DIVIDE', 'TRIPLE', 'x', 'y')",DIVIDE,3,"(6, 2, 3)",3,3,3,2,triple,increase,0,UBUxy,,,,,0,13,13,7,,,,,,space,2.85876663768,4,0,3.93828848959,2015_Jul_16_1551,None,KRITL,001,31026,
,,,,,,,,"('DECREASE', 'THIRD', 'DOUBLE', 'ADD', 'x', 'y')",third,4,"(9, 18, 6, 5)",5,5,4,5,double,decrease,ADD,UUUBxy,,,,,0,14,14,16,,,,,,space,2.50642445459,7,0,3.43193577748,2015_Jul_16_1551,None,KRITL,001,31026,
,,,,,,,,"('SUBTRACT', 'INCREASE', 'HALF', 'x', 'y')",increase,3,"(4, 5, 3)",3,3,2,8,half,SUBTRACT,0,BUUxy,,,,,0,15,15,5,,,,,,space,1.81724067093,3,1,2.6232363153,2015_Jul_16_1551,None,KRITL,001,31026,
,,,,,,,,"('DOUBLE', 'DIVIDE', 'x', 'y')",DIVIDE,2,"(1, 2)",2,2,8,8,0,double,0,UBxy,,,,,0,16,16,2,,,,,,space,0.894219688198,2,1,1.55129467242,2015_Jul_16_1551,None,KRITL,001,31026,
,,,,,,,,"('TRIPLE', 'INCREASE', 'DIVIDE', 'DOUBLE', 'x', 'y')",increase,4,"(16, 2, 3, 9)",9,9,8,8,DIVIDE,triple,double,UUBUxy,,,,,0,17,17,15,,,,,,space,2.4839588989,6,0,15.2568994425,2015_Jul_16_1551,None,KRITL,001,31026,
,,,,,,,,"('DECREASE', 'TIMES', 'x', 'y')",TIMES,2,"(9, 8)",8,8,3,3,0,decrease,0,UBxy,,,,,0,0,0,2,,,,,,space,0.964111245004,8,1,2.0342519758,2015_Jul_16_1551,None,KRITL,001,31026,
,,,,,,,,"('HALF', 'ADD', 'x', 'y')",ADD,2,"(12, 6)",6,6,8,4,0,half,0,UBxy,,,,,0,1,1,3,,,,,,space,1.01527485606,6,1,2.4349871091,2015_Jul_16_1551,None,KRITL,001,31026,
,,,,,,,,"('DIVIDE', 'DECREASE', 'x', 'y')",decrease,2,"(8, 2)",2,2,4,9,0,DIVIDE,0,BUxy,,,,,0,2,2,1,,,,,,space,1.25701143086,2,1,2.27082798909,2015_Jul_16_1551,None,KRITL,001,31026,
,,,,,,,,"('DECREASE', 'SUBTRACT', 'DOUBLE', 'THIRD', 'x', 'y')",SUBTRACT,4,"(3, 6, 4, 3)",3,3,2,9,double,decrease,third,UBUUxy,,,,,0,3,3,13,,,,,,space,3.99358656924,3,1,14.462989437,2015_Jul_16_1551,None,KRITL,001,31026,
,,,,,,,,"('DECREASE', 'DOUBLE', 'TIMES', 'THIRD', 'x', 'y')",double,4,"(1, 3, 6, 5)",5,5,3,3,TIMES,decrease,third,UUBUxy,,,,,0,4,4,14,,,,,,space,2.90712529147,5,1,3.96670622419,2015_Jul_16_1551,None,KRITL,001,31026,
,,,,,,,,"('ADD', 'DECREASE', 'x', 'y')",decrease,2,"(2, 7)",7,7,5,3,0,ADD,0,BUxy,,,,,0,5,5,0,,,,,,space,1.00053719393,7,1,1.98804384761,2015_Jul_16_1551,None,KRITL,001,31026,
,,,,,,,,"('INCREASE', 'HALF', 'THIRD', 'TIMES', 'x', 'y')",half,4,"(12, 4, 2, 3)",3,3,4,3,third,increase,TIMES,UUUBxy,,,,,0,6,6,16,,,,,,space,2.44106597477,3,1,6.3249410924,2015_Jul_16_1551,None,KRITL,001,31026,
,,,,,,,,"('ADD', 'TRIPLE', 'DOUBLE', 'DECREASE', 'x', 'y')",triple,4,"(1, 2, 6, 8)",8,8,2,2,double,ADD,decrease,BUUUxy,,,,,0,7,7,11,,,,,,space,4.09314313054,8,1,4.43148292476,2015_Jul_16_1551,None,KRITL,001,31026,
,,,,,,,,"('THIRD', 'HALF', 'INCREASE', 'SUBTRACT', 'x', 'y')",half,4,"(5, 6, 3, 1)",1,1,2,7,increase,third,SUBTRACT,UUUBxy,,,,,0,8,8,17,,,,,,space,3.31206453606,4,0,6.07525614701,2015_Jul_16_1551,None,KRITL,001,31026,
,,,,,,,,"('HALF', 'INCREASE', 'TIMES', 'x', 'y')",increase,3,"(9, 10, 5)",5,5,3,3,TIMES,half,0,UUBxy,,,,,0,9,9,9,,,,,,space,0.999690982251,5,1,3.42791504707,2015_Jul_16_1551,None,KRITL,001,31026,
,,,,,,,,"('DOUBLE', 'SUBTRACT', 'INCREASE', 'x', 'y')",SUBTRACT,3,"(4, 1, 2)",2,2,3,3,increase,double,0,UBUxy,,,,,0,10,10,6,,,,,,space,2.06934036434,2,1,3.22182015306,2015_Jul_16_1551,None,KRITL,001,31026,
,,,,,,,,"('DOUBLE', 'THIRD', 'ADD', 'x', 'y')",third,3,"(9, 3, 6)",6,6,4,5,ADD,double,0,UUBxy,,,,,0,11,11,8,,,,,,space,2.2764466528,6,1,2.04677156938,2015_Jul_16_1551,None,KRITL,001,31026,
,,,,,,,,"('ADD', 'TRIPLE', 'HALF', 'x', 'y')",triple,3,"(2, 6, 8)",8,8,2,4,half,ADD,0,BUUxy,,,,,0,12,12,5,,,,,,space,1.66488371938,8,1,5.1388424118,2015_Jul_16_1551,None,KRITL,001,31026,
,,,,,,,,"('ADD', 'DOUBLE', 'DECREASE', 'x', 'y')",double,3,"(1, 2, 7)",7,7,5,2,decrease,ADD,0,BUUxy,,,,,0,13,13,4,,,,,,space,1.59489277293,7,1,4.53229305521,2015_Jul_16_1551,None,KRITL,001,31026,
,,,,,,,,"('DECREASE', 'ADD', 'THIRD', 'HALF', 'x', 'y')",ADD,4,"(3, 1, 7, 6)",6,6,6,6,third,decrease,half,UBUUxy,,,,,0,14,14,12,,,,,,space,4.30931382309,6,1,7.14093589335,2015_Jul_16_1551,None,KRITL,001,31026,
,,,,,,,,"('ADD', 'DECREASE', 'THIRD', 'DOUBLE', 'x', 'y')",decrease,4,"(18, 6, 5, 9)",9,9,4,9,third,ADD,double,BUUUxy,,,,,0,15,15,10,,,,,,space,4.62612386397,9,1,4.62110153804,2015_Jul_16_1551,None,KRITL,001,31026,
,,,,,,,,"('INCREASE', 'ADD', 'HALF', 'x', 'y')",ADD,3,"(1, 4, 5)",5,5,3,2,half,increase,0,UBUxy,,,,,0,16,16,7,,,,,,space,1.74863942948,5,1,4.6609466302,2015_Jul_16_1551,None,KRITL,001,31026,
,,,,,,,,"('DECREASE', 'TRIPLE', 'SUBTRACT', 'DOUBLE', 'x', 'y')",triple,4,"(6, 3, 9, 8)",8,8,3,3,SUBTRACT,decrease,double,UUBUxy,,,,,0,17,17,15,,,,,,space,3.77009464064,1,0,8.14995515218,2015_Jul_16_1551,None,KRITL,001,31026,
,,,,,,,,"('DECREASE', 'TRIPLE', 'HALF', 'ADD', 'x', 'y')",triple,4,"(6, 3, 9, 8)",8,8,2,4,half,decrease,ADD,UUUBxy,,,,,0,0,0,16,,,,,,space,4.58331738084,8,1,6.45496407448,2015_Jul_16_1551,None,KRITL,001,31026,
,,,,,,,,"('TIMES', 'THIRD', 'DOUBLE', 'x', 'y')",third,3,"(6, 2, 4)",4,4,2,3,double,TIMES,0,BUUxy,,,,,0,1,1,5,,,,,,space,2.97448276274,4,1,4.61869728894,2015_Jul_16_1551,None,KRITL,001,31026,
,,,,,,,,"('THIRD', 'INCREASE', 'ADD', 'DOUBLE', 'x', 'y')",increase,4,"(16, 20, 21, 7)",7,7,4,8,ADD,third,double,UUBUxy,,,,,0,2,2,14,,,,,,space,4.62632054347,7,1,4.57075894129,2015_Jul_16_1551,None,KRITL,001,31026,
,,,,,,,,"('DOUBLE', 'ADD', 'x', 'y')",ADD,2,"(4, 8)",8,8,2,2,0,double,0,UBxy,,,,,0,3,3,2,,,,,,space,0.924739653419,8,1,3.45403317161,2015_Jul_16_1551,None,KRITL,001,31026,
,,,,,,,,"('DIVIDE', 'TRIPLE', 'HALF', 'x', 'y')",triple,3,"(4, 12, 4)",4,4,3,8,half,DIVIDE,0,BUUxy,,,,,0,4,4,4,,,,,,space,1.33318203245,4,1,5.03837139593,2015_Jul_16_1551,None,KRITL,001,31026,
,,,,,,,,"('SUBTRACT', 'INCREASE', 'x', 'y')",increase,2,"(6, 2)",2,2,4,5,0,SUBTRACT,0,BUxy,,,,,0,5,5,1,,,,,,space,1.29399067207,2,1,2.25569241849,2015_Jul_16_1551,None,KRITL,001,31026,
,,,,,,,,"('THIRD', 'TIMES', 'HALF', 'INCREASE', 'x', 'y')",TIMES,4,"(8, 4, 12, 4)",4,4,3,7,half,third,increase,UBUUxy,,,,,0,6,6,13,,,,,,space,2.4617470667,4,1,4.65309030001,2015_Jul_16_1551,None,KRITL,001,31026,
,,,,,,,,"('ADD', 'THIRD', 'x', 'y')",third,2,"(1, 7)",7,7,6,3,0,ADD,0,BUxy,,,,,0,7,7,0,,,,,,space,0.805242172966,7,1,2.50020315379,2015_Jul_16_1551,None,KRITL,001,31026,
,,,,,,,,"('DECREASE', 'TRIPLE', 'DIVIDE', 'x', 'y')",triple,3,"(2, 6, 5)",5,5,4,8,DIVIDE,decrease,0,UUBxy,,,,,0,8,8,8,,,,,,space,1.17064219349,5,1,4.10151985643,2015_Jul_16_1551,None,KRITL,001,31026,
,,,,,,,,"('INCREASE', 'ADD', 'TRIPLE', 'x', 'y')",ADD,3,"(6, 8, 9)",9,9,2,2,triple,increase,0,UBUxy,,,,,0,9,9,6,,,,,,space,1.29097713655,7,0,4.69041425525,2015_Jul_16_1551,None,KRITL,001,31026,
,,,,,,,,"('INCREASE', 'DIVIDE', 'TRIPLE', 'HALF', 'x', 'y')",DIVIDE,4,"(2, 6, 2, 3)",3,3,3,4,triple,increase,half,UBUUxy,,,,,0,10,10,12,,,,,,space,2.55208593985,3,1,5.61914454226,2015_Jul_16_1551,None,KRITL,001,31026,
,,,,,,,,"('INCREASE', 'SUBTRACT', 'THIRD', 'x', 'y')",SUBTRACT,3,"(3, 1, 2)",2,2,2,9,third,increase,0,UBUxy,,,,,0,11,11,7,,,,,,space,2.08965679433,2,1,5.1350187108,2015_Jul_16_1551,None,KRITL,001,31026,
,,,,,,,,"('DOUBLE', 'TIMES', 'x', 'y')",TIMES,2,"(4, 8)",8,8,2,2,0,double,0,UBxy,,,,,0,12,12,3,,,,,,space,0.928046808316,8,1,1.68281199856,2015_Jul_16_1551,None,KRITL,001,31026,
,,,,,,,,"('THIRD', 'INCREASE', 'SUBTRACT', 'x', 'y')",increase,3,"(2, 3, 1)",1,1,6,8,SUBTRACT,third,0,UUBxy,,,,,0,13,13,9,,,,,,space,2.50894034209,1,1,5.96004816896,2015_Jul_16_1551,None,KRITL,001,31026,
,,,,,,,,"('DIVIDE', 'DOUBLE', 'INCREASE', 'THIRD', 'x', 'y')",double,4,"(2, 3, 6, 2)",2,2,3,6,increase,DIVIDE,third,BUUUxy,,,,,0,14,14,10,,,,,,space,2.10280072276,2,1,8.9905233389,2015_Jul_16_1551,None,KRITL,001,31026,
,,,,,,,,"('TRIPLE', 'DECREASE', 'HALF', 'SUBTRACT', 'x', 'y')",decrease,4,"(4, 2, 1, 3)",3,3,5,9,half,triple,SUBTRACT,UUUBxy,,,,,0,15,15,17,,,,,,space,5.23518525841,9,0,9.64316358589,2015_Jul_16_1551,None,KRITL,001,31026,
,,,,,,,,"('TIMES', 'INCREASE', 'HALF', 'TRIPLE', 'x', 'y')",increase,4,"(6, 3, 4, 8)",8,8,2,2,half,TIMES,triple,BUUUxy,,,,,0,16,16,11,,,,,,space,2.84364121602,4,0,8.93971669057,2015_Jul_16_1551,None,KRITL,001,31026,
,,,,,,,,"('TRIPLE', 'DOUBLE', 'SUBTRACT', 'DECREASE', 'x', 'y')",double,4,"(4, 1, 2, 6)",6,6,3,5,SUBTRACT,triple,decrease,UUBUxy,,,,,0,17,17,15,,,,,,space,5.61661430629,6,1,8.55407198259,2015_Jul_16_1551,None,KRITL,001,31026,
,,,,,,,,"('THIRD', 'INCREASE', 'HALF', 'DIVIDE', 'x', 'y')",increase,4,"(4, 2, 3, 1)",1,1,2,8,half,third,DIVIDE,UUUBxy,,,,,0,0,0,16,,,,,,space,6.65348540881,1,1,4.4190550216,2015_Jul_16_1551,None,KRITL,001,31026,
,,,,,,,,"('THIRD', 'SUBTRACT', 'x', 'y')",SUBTRACT,2,"(3, 1)",1,1,2,5,0,third,0,UBxy,,,,,0,1,1,3,,,,,,space,1.13418159814,1,1,1.48710822026,2015_Jul_16_1551,None,KRITL,001,31026,
,,,,,,,,"('THIRD', 'DOUBLE', 'ADD', 'INCREASE', 'x', 'y')",double,4,"(10, 12, 24, 8)",8,8,2,9,ADD,third,increase,UUBUxy,,,,,0,2,2,14,,,,,,space,2.76798786045,7,0,7.86518216826,2015_Jul_16_1551,None,KRITL,001,31026,
,,,,,,,,"('INCREASE', 'DIVIDE', 'TRIPLE', 'DOUBLE', 'x', 'y')",DIVIDE,4,"(6, 18, 3, 4)",4,4,6,3,triple,increase,double,UBUUxy,,,,,0,3,3,12,,,,,,space,2.14246103418,4,1,3.88762007683,2015_Jul_16_1551,None,KRITL,001,31026,
,,,,,,,,"('TRIPLE', 'HALF', 'ADD', 'DECREASE', 'x', 'y')",half,4,"(1, 4, 2, 6)",6,6,3,2,ADD,triple,decrease,UUBUxy,,,,,0,4,4,15,,,,,,space,2.62196489796,6,1,3.81265859908,2015_Jul_16_1551,None,KRITL,001,31026,
,,,,,,,,"('TIMES', 'INCREASE', 'THIRD', 'DOUBLE', 'x', 'y')",increase,4,"(6, 2, 3, 9)",9,9,3,3,third,TIMES,double,BUUUxy,,,,,0,5,5,11,,,,,,space,5.05786611169,9,1,4.45395372994,2015_Jul_16_1551,None,KRITL,001,31026,
,,,,,,,,"('TRIPLE', 'DECREASE', 'HALF', 'TIMES', 'x', 'y')",decrease,4,"(6, 3, 2, 6)",6,6,2,3,half,triple,TIMES,UUUBxy,,,,,0,6,6,17,,,,,,space,5.69240589745,6,1,7.58577692418,2015_Jul_16_1551,None,KRITL,001,31026,
,,,,,,,,"('SUBTRACT', 'HALF', 'INCREASE', 'TRIPLE', 'x', 'y')",half,4,"(15, 16, 8, 3)",3,3,5,5,increase,SUBTRACT,triple,BUUUxy,,,,,0,7,7,10,,,,,,space,2.46438369155,3,1,4.70808776104,2015_Jul_16_1551,None,KRITL,001,31026,
,,,,,,,,"('THIRD', 'TIMES', 'DECREASE', 'x', 'y')",TIMES,3,"(3, 15, 5)",5,5,5,4,decrease,third,0,UBUxy,,,,,0,8,8,7,,,,,,space,1.69141585074,5,1,4.43653569749,2015_Jul_16_1551,None,KRITL,001,31026,
,,,,,,,,"('TIMES', 'DECREASE', 'x', 'y')",decrease,2,"(2, 4)",4,4,2,3,0,TIMES,0,BUxy,,,,,0,9,9,0,,,,,,space,0.943619133352,4,1,1.94613187114,2015_Jul_16_1551,None,KRITL,001,31026,
,,,,,,,,"('THIRD', 'ADD', 'INCREASE', 'x', 'y')",ADD,3,"(8, 15, 5)",5,5,7,7,increase,third,0,UBUxy,,,,,0,10,10,6,,,,,,space,1.15164897541,5,1,4.37850055346,2015_Jul_16_1551,None,KRITL,001,31026,
,,,,,,,,"('THIRD', 'DECREASE', 'TIMES', 'x', 'y')",decrease,3,"(25, 24, 8)",8,8,5,5,TIMES,third,0,UUBxy,,,,,0,11,11,8,,,,,,space,1.0362250699,8,1,6.04027484733,2015_Jul_16_1551,None,KRITL,001,31026,
,,,,,,,,"('TIMES', 'DECREASE', 'HALF', 'x', 'y')",decrease,3,"(4, 3, 9)",9,9,3,8,half,TIMES,0,BUUxy,,,,,0,12,12,4,,,,,,space,4.26016635165,9,1,3.90541327011,2015_Jul_16_1551,None,KRITL,001,31026,
,,,,,,,,"('TRIPLE', 'HALF', 'DIVIDE', 'x', 'y')",half,3,"(2, 1, 3)",3,3,2,4,DIVIDE,triple,0,UUBxy,,,,,0,13,13,9,,,,,,space,1.22760189974,3,1,2.70389099899,2015_Jul_16_1551,None,KRITL,001,31026,
,,,,,,,,"('THIRD', 'ADD', 'x', 'y')",ADD,2,"(9, 3)",3,3,5,4,0,third,0,UBxy,,,,,0,14,14,2,,,,,,space,0.804714078084,3,1,1.792726429,2015_Jul_16_1551,None,KRITL,001,31026,
,,,,,,,,"('TIMES', 'INCREASE', 'x', 'y')",increase,2,"(3, 6)",6,6,2,2,0,TIMES,0,BUxy,,,,,0,15,15,1,,,,,,space,0.97057297072,6,1,2.45591142564,2015_Jul_16_1551,None,KRITL,001,31026,
,,,,,,,,"('TIMES', 'THIRD', 'HALF', 'x', 'y')",third,3,"(3, 1, 5)",5,5,5,6,half,TIMES,0,BUUxy,,,,,0,16,16,5,,,,,,space,1.59530433,5,1,4.15736247922,2015_Jul_16_1551,None,KRITL,001,31026,
,,,,,,,,"('TRIPLE', 'SUBTRACT', 'DOUBLE', 'DECREASE', 'x', 'y')",SUBTRACT,4,"(2, 4, 1, 3)",3,3,3,3,double,triple,decrease,UBUUxy,,,,,0,17,17,13,,,,,,space,4.9736673478,3,1,5.68341673547,2015_Jul_16_1551,None,KRITL,001,31026,
