operationc,operationb,operationa,correctresponse,valuey,operationd,condition,valuex,Rule,Operatora,Length,Intermediate,CorrectResponse,Result,Y,X,Operatorc,Operatorb,Operatord,Structure,practice_trials.thisRepN,practice_trials.thisTrialN,practice_trials.thisN,practice_trials.thisIndex,block.thisRepN,block.thisTrialN,block.thisN,block.thisIndex,practice_encoding.keys,practice_encoding.rt,practice_execution.keys,practice_execution.corr,practice_execution.rt,encoding.keys,encoding.rt,execution.keys,execution.corr,execution.rt,date,frameRate,expName,session,participant,
increase,DIVIDE,double,9,8,triple,4,8,,,,,,,,,,,,,0,0,0,5,,,,,['space'],[5.071765961241908],None,0,,,,,,,2015_Jul_24_1535,243.790238018,KRITL,001,31030,
ADD,triple ,half,8,2,0,3,4,,,,,,,,,,,,,0,1,1,3,,,,,['space'],[4.570507317548618],None,0,,,,,,,2015_Jul_24_1535,243.790238018,KRITL,001,31030,
increase,DIVIDE,triple,3,3,0,3,2,,,,,,,,,,,,,0,2,2,4,,,,,None,,6,0,7.49058265769,,,,,,2015_Jul_24_1535,243.790238018,KRITL,001,31030,
0,ADD,decrease,7,5,0,2,3,,,,,,,,,,,,,0,3,3,0,,,,,['space'],[7.150721922167577],7,1,9.09267067979,,,,,,2015_Jul_24_1535,243.790238018,KRITL,001,31030,
0,ADD,half,7,5,0,2,4,,,,,,,,,,,,,0,4,4,2,,,,,['space'],[5.200361792230979],7,1,1.69283075311,,,,,,2015_Jul_24_1535,243.790238018,KRITL,001,31030,
0,decrease,TIMES,8,3,0,2,3,,,,,,,,,,,,,0,5,5,1,,,,,['space'],[5.741268848592881],8,1,5.44902134466,,,,,,2015_Jul_24_1535,243.790238018,KRITL,001,31030,
,,,,,,,,"('DIVIDE', 'DOUBLE', 'INCREASE', 'THIRD', 'x', 'y')",double,4,"(2, 3, 6, 2)",2,2,3,6,increase,DIVIDE,third,BUUUxy,,,,,0,0,0,10,,,,,,space,11.9748033293,4,0,9.79529726075,2015_Jul_24_1535,243.790238018,KRITL,001,31030,
,,,,,,,,"('SUBTRACT', 'INCREASE', 'x', 'y')",increase,2,"(6, 2)",2,2,4,5,0,SUBTRACT,0,BUxy,,,,,0,1,1,1,,,,,,space,5.23571335326,2,1,2.87237146799,2015_Jul_24_1535,243.790238018,KRITL,001,31030,
,,,,,,,,"('TIMES', 'THIRD', 'DOUBLE', 'x', 'y')",third,3,"(6, 2, 4)",4,4,2,3,double,TIMES,0,BUUxy,,,,,0,2,2,5,,,,,,space,2.56351609709,4,1,8.70030422322,2015_Jul_24_1535,243.790238018,KRITL,001,31030,
,,,,,,,,"('DECREASE', 'TRIPLE', 'HALF', 'ADD', 'x', 'y')",triple,4,"(6, 3, 9, 8)",8,8,2,4,half,decrease,ADD,UUUBxy,,,,,0,3,3,16,,,,,,space,2.57718812046,9,0,9.44432343484,2015_Jul_24_1535,243.790238018,KRITL,001,31030,
,,,,,,,,"('ADD', 'THIRD', 'x', 'y')",third,2,"(1, 7)",7,7,6,3,0,ADD,0,BUxy,,,,,0,4,4,0,,,,,,space,4.42176863842,7,1,3.43010896817,2015_Jul_24_1535,243.790238018,KRITL,001,31030,
,,,,,,,,"('DOUBLE', 'ADD', 'x', 'y')",ADD,2,"(4, 8)",8,8,2,2,0,double,0,UBxy,,,,,0,5,5,2,,,,,,space,1.566708114,8,1,4.11879125418,2015_Jul_24_1535,243.790238018,KRITL,001,31030,
,,,,,,,,"('TIMES', 'INCREASE', 'HALF', 'TRIPLE', 'x', 'y')",increase,4,"(6, 3, 4, 8)",8,8,2,2,half,TIMES,triple,BUUUxy,,,,,0,6,6,11,,,,,,space,4.13035859709,2,0,11.9959960678,2015_Jul_24_1535,243.790238018,KRITL,001,31030,
,,,,,,,,"('DECREASE', 'TRIPLE', 'DIVIDE', 'x', 'y')",triple,3,"(2, 6, 5)",5,5,4,8,DIVIDE,decrease,0,UUBxy,,,,,0,7,7,8,,,,,,space,2.54199229309,7,0,9.92367681436,2015_Jul_24_1535,243.790238018,KRITL,001,31030,
,,,,,,,,"('THIRD', 'INCREASE', 'SUBTRACT', 'x', 'y')",increase,3,"(2, 3, 1)",1,1,6,8,SUBTRACT,third,0,UUBxy,,,,,0,8,8,9,,,,,,space,5.67980266258,1,1,7.05709969159,2015_Jul_24_1535,243.790238018,KRITL,001,31030,
,,,,,,,,"('TRIPLE', 'DOUBLE', 'SUBTRACT', 'DECREASE', 'x', 'y')",double,4,"(4, 1, 2, 6)",6,6,3,5,SUBTRACT,triple,decrease,UUBUxy,,,,,0,9,9,15,,,,,,space,3.65590925585,4,0,6.99655775918,2015_Jul_24_1535,243.790238018,KRITL,001,31030,
,,,,,,,,"('INCREASE', 'ADD', 'TRIPLE', 'x', 'y')",ADD,3,"(6, 8, 9)",9,9,2,2,triple,increase,0,UBUxy,,,,,0,10,10,6,,,,,,space,4.5401801822,9,1,8.65324813355,2015_Jul_24_1535,243.790238018,KRITL,001,31030,
,,,,,,,,"('INCREASE', 'DIVIDE', 'TRIPLE', 'HALF', 'x', 'y')",DIVIDE,4,"(2, 6, 2, 3)",3,3,3,4,triple,increase,half,UBUUxy,,,,,0,11,11,12,,,,,,space,7.13064556714,3,1,7.59648720652,2015_Jul_24_1535,243.790238018,KRITL,001,31030,
,,,,,,,,"('DIVIDE', 'TRIPLE', 'HALF', 'x', 'y')",triple,3,"(4, 12, 4)",4,4,3,8,half,DIVIDE,0,BUUxy,,,,,0,12,12,4,,,,,,space,1.41449989693,4,1,6.58352875873,2015_Jul_24_1535,243.790238018,KRITL,001,31030,
,,,,,,,,"('THIRD', 'TIMES', 'HALF', 'INCREASE', 'x', 'y')",TIMES,4,"(8, 4, 12, 4)",4,4,3,7,half,third,increase,UBUUxy,,,,,0,13,13,13,,,,,,space,5.75094008941,4,1,11.6369286365,2015_Jul_24_1535,243.790238018,KRITL,001,31030,
,,,,,,,,"('THIRD', 'INCREASE', 'ADD', 'DOUBLE', 'x', 'y')",increase,4,"(16, 20, 21, 7)",7,7,4,8,ADD,third,double,UUBUxy,,,,,0,14,14,14,,,,,,space,7.0507062088,7,1,9.67363665602,2015_Jul_24_1535,243.790238018,KRITL,001,31030,
,,,,,,,,"('DOUBLE', 'TIMES', 'x', 'y')",TIMES,2,"(4, 8)",8,8,2,2,0,double,0,UBxy,,,,,0,15,15,3,,,,,,space,1.99295733491,8,1,2.8385383985,2015_Jul_24_1535,243.790238018,KRITL,001,31030,
,,,,,,,,"('TRIPLE', 'DECREASE', 'HALF', 'SUBTRACT', 'x', 'y')",decrease,4,"(4, 2, 1, 3)",3,3,5,9,half,triple,SUBTRACT,UUUBxy,,,,,0,16,16,17,,,,,,space,9.18116769515,3,1,11.1892147555,2015_Jul_24_1535,243.790238018,KRITL,001,31030,
,,,,,,,,"('INCREASE', 'SUBTRACT', 'THIRD', 'x', 'y')",SUBTRACT,3,"(3, 1, 2)",2,2,2,9,third,increase,0,UBUxy,,,,,0,17,17,7,,,,,,space,8.88571452571,2,1,8.73257505579,2015_Jul_24_1535,243.790238018,KRITL,001,31030,
,,,,,,,,"('THIRD', 'TIMES', 'HALF', 'x', 'y')",TIMES,3,"(3, 18, 6)",6,6,6,6,half,third,0,UBUxy,,,,,0,0,0,7,,,,,,space,4.51783221419,6,1,6.59024630778,2015_Jul_24_1535,243.790238018,KRITL,001,31030,
,,,,,,,,"('TIMES', 'DOUBLE', 'x', 'y')",double,2,"(4, 8)",8,8,2,2,0,TIMES,0,BUxy,,,,,0,1,1,1,,,,,,space,1.17571316432,8,1,5.45024971641,2015_Jul_24_1535,243.790238018,KRITL,001,31030,
,,,,,,,,"('INCREASE', 'SUBTRACT', 'x', 'y')",SUBTRACT,2,"(3, 4)",4,4,3,6,0,increase,0,UBxy,,,,,0,2,2,2,,,,,,space,2.67095278611,4,1,1.83842816006,2015_Jul_24_1535,243.790238018,KRITL,001,31030,
,,,,,,,,"('HALF', 'TRIPLE', 'INCREASE', 'SUBTRACT', 'x', 'y')",triple,4,"(1, 2, 6, 3)",3,3,2,3,increase,half,SUBTRACT,UUUBxy,,,,,0,3,3,17,,,,,,space,5.76505656634,3,1,5.93016268749,2015_Jul_24_1535,243.790238018,KRITL,001,31030,
,,,,,,,,"('DECREASE', 'TRIPLE', 'DIVIDE', 'DOUBLE', 'x', 'y')",triple,4,"(6, 2, 6, 5)",5,5,3,3,DIVIDE,decrease,double,UUBUxy,,,,,0,4,4,14,,,,,,space,6.16204849025,4,0,6.58391301869,2015_Jul_24_1535,243.790238018,KRITL,001,31030,
,,,,,,,,"('INCREASE', 'ADD', 'HALF', 'TRIPLE', 'x', 'y')",ADD,4,"(6, 3, 6, 7)",7,7,3,2,half,increase,triple,UBUUxy,,,,,0,5,5,13,,,,,,space,4.1255430996,7,1,15.8271421877,2015_Jul_24_1535,243.790238018,KRITL,001,31030,
,,,,,,,,"('SUBTRACT', 'TRIPLE', 'DECREASE', 'x', 'y')",triple,3,"(4, 12, 3)",3,3,9,5,decrease,SUBTRACT,0,BUUxy,,,,,0,6,6,4,,,,,,space,3.29602011031,3,1,5.45914123865,2015_Jul_24_1535,243.790238018,KRITL,001,31030,
,,,,,,,,"('TIMES', 'HALF', 'INCREASE', 'x', 'y')",half,3,"(6, 3, 9)",9,9,3,5,increase,TIMES,0,BUUxy,,,,,0,7,7,5,,,,,,space,1.93492464063,9,1,4.49089657492,2015_Jul_24_1535,243.790238018,KRITL,001,31030,
,,,,,,,,"('DOUBLE', 'DIVIDE', 'TRIPLE', 'INCREASE', 'x', 'y')",DIVIDE,4,"(5, 15, 3, 6)",6,6,5,4,triple,double,increase,UBUUxy,,,,,0,8,8,12,,,,,,space,3.23631494056,5,0,6.72860646993,2015_Jul_24_1535,243.790238018,KRITL,001,31030,
,,,,,,,,"('DOUBLE', 'DECREASE', 'ADD', 'x', 'y')",decrease,3,"(4, 3, 6)",6,6,2,2,ADD,double,0,UUBxy,,,,,0,9,9,8,,,,,,space,1.89534867037,6,1,10.9587799013,2015_Jul_24_1535,243.790238018,KRITL,001,31030,
,,,,,,,,"('THIRD', 'DECREASE', 'TIMES', 'HALF', 'x', 'y')",decrease,4,"(4, 16, 15, 5)",5,5,4,8,TIMES,third,half,UUBUxy,,,,,0,10,10,15,,,,,,space,8.13379838812,5,1,7.89778721594,2015_Jul_24_1535,243.790238018,KRITL,001,31030,
,,,,,,,,"('THIRD', 'DIVIDE', 'x', 'y')",DIVIDE,2,"(3, 1)",1,1,2,6,0,third,0,UBxy,,,,,0,11,11,3,,,,,,space,1.815266177,1,1,3.06137379562,2015_Jul_24_1535,243.790238018,KRITL,001,31030,
,,,,,,,,"('DOUBLE', 'THIRD', 'TIMES', 'x', 'y')",third,3,"(12, 4, 8)",8,8,6,2,TIMES,double,0,UUBxy,,,,,0,12,12,9,,,,,,space,1.86102460208,8,1,7.74821002432,2015_Jul_24_1535,243.790238018,KRITL,001,31030,
,,,,,,,,"('THIRD', 'DIVIDE', 'DECREASE', 'x', 'y')",DIVIDE,3,"(6, 3, 1)",1,1,2,7,decrease,third,0,UBUxy,,,,,0,13,13,6,,,,,,space,3.2225141307,1,1,4.80603729002,2015_Jul_24_1535,243.790238018,KRITL,001,31030,
,,,,,,,,"('SUBTRACT', 'DOUBLE', 'TRIPLE', 'DECREASE', 'x', 'y')",double,4,"(2, 6, 12, 8)",8,8,4,3,triple,SUBTRACT,decrease,BUUUxy,,,,,0,14,14,10,,,,,,space,8.87372197711,8,1,15.2406121421,2015_Jul_24_1535,243.790238018,KRITL,001,31030,
,,,,,,,,"('DIVIDE', 'THIRD', 'x', 'y')",third,2,"(3, 1)",1,1,3,9,0,DIVIDE,0,BUxy,,,,,0,15,15,0,,,,,,space,1.07775873586,1,1,2.15653131594,2015_Jul_24_1535,243.790238018,KRITL,001,31030,
,,,,,,,,"('DECREASE', 'TRIPLE', 'HALF', 'SUBTRACT', 'x', 'y')",triple,4,"(4, 2, 6, 5)",5,5,2,6,half,decrease,SUBTRACT,UUUBxy,,,,,0,16,16,16,,,,,,space,11.4067328074,5,1,5.8018916226,2015_Jul_24_1535,243.790238018,KRITL,001,31030,
,,,,,,,,"('SUBTRACT', 'TRIPLE', 'DECREASE', 'DOUBLE', 'x', 'y')",triple,4,"(4, 3, 9, 1)",1,1,8,2,decrease,SUBTRACT,double,BUUUxy,,,,,0,17,17,11,,,,,,space,4.48412023205,1,1,7.27111950866,2015_Jul_24_1535,243.790238018,KRITL,001,31030,
,,,,,,,,"('DECREASE', 'TIMES', 'DOUBLE', 'THIRD', 'x', 'y')",TIMES,4,"(1, 2, 8, 7)",7,7,4,3,double,decrease,third,UBUUxy,,,,,0,0,0,13,,,,,,space,6.49171723932,7,1,10.0793227227,2015_Jul_24_1535,243.790238018,KRITL,001,31030,
,,,,,,,,"('DOUBLE', 'SUBTRACT', 'x', 'y')",SUBTRACT,2,"(1, 2)",2,2,7,8,0,double,0,UBxy,,,,,0,1,1,2,,,,,,space,2.98407946131,2,1,2.50397366035,2015_Jul_24_1535,243.790238018,KRITL,001,31030,
,,,,,,,,"('INCREASE', 'DIVIDE', 'THIRD', 'x', 'y')",DIVIDE,3,"(3, 1, 2)",2,2,3,9,third,increase,0,UBUxy,,,,,0,2,2,7,,,,,,space,5.10174628277,1,0,5.5714308712,2015_Jul_24_1535,243.790238018,KRITL,001,31030,
,,,,,,,,"('DECREASE', 'THIRD', 'TIMES', 'HALF', 'x', 'y')",third,4,"(2, 12, 4, 3)",3,3,6,4,TIMES,decrease,half,UUBUxy,,,,,0,3,3,14,,,,,,space,8.69553702069,3,1,6.66250431765,2015_Jul_24_1535,243.790238018,KRITL,001,31030,
,,,,,,,,"('ADD', 'THIRD', 'INCREASE', 'HALF', 'x', 'y')",third,4,"(2, 3, 1, 7)",7,7,6,4,increase,ADD,half,BUUUxy,,,,,0,4,4,10,,,,,,space,3.33723705931,7,1,8.33382701513,2015_Jul_24_1535,243.790238018,KRITL,001,31030,
,,,,,,,,"('DOUBLE', 'TRIPLE', 'SUBTRACT', 'x', 'y')",triple,3,"(1, 3, 6)",6,6,3,4,SUBTRACT,double,0,UUBxy,,,,,0,5,5,9,,,,,,space,2.6206381864,6,1,6.34451454994,2015_Jul_24_1535,243.790238018,KRITL,001,31030,
,,,,,,,,"('DIVIDE', 'INCREASE', 'DOUBLE', 'THIRD', 'x', 'y')",increase,4,"(2, 4, 5, 1)",1,1,5,6,double,DIVIDE,third,BUUUxy,,,,,0,6,6,11,,,,,,space,15.2047562837,1,1,9.17114929057,2015_Jul_24_1535,243.790238018,KRITL,001,31030,
,,,,,,,,"('HALF', 'SUBTRACT', 'TRIPLE', 'x', 'y')",SUBTRACT,3,"(9, 2, 1)",1,1,7,3,triple,half,0,UBUxy,,,,,0,7,7,6,,,,,,space,2.21434738283,5,0,7.9257576972,2015_Jul_24_1535,243.790238018,KRITL,001,31030,
,,,,,,,,"('HALF', 'TIMES', 'x', 'y')",TIMES,2,"(16, 8)",8,8,4,4,0,half,0,UBxy,,,,,0,8,8,3,,,,,,space,1.23605666746,8,1,3.35796294652,2015_Jul_24_1535,243.790238018,KRITL,001,31030,
,,,,,,,,"('DOUBLE', 'TRIPLE', 'DIVIDE', 'DECREASE', 'x', 'y')",triple,4,"(8, 1, 3, 6)",6,6,8,9,DIVIDE,double,decrease,UUBUxy,,,,,0,9,9,15,,,,,,space,2.98743036168,6,1,4.09161623986,2015_Jul_24_1535,243.790238018,KRITL,001,31030,
,,,,,,,,"('DIVIDE', 'DOUBLE', 'THIRD', 'x', 'y')",double,3,"(2, 4, 1)",1,1,4,6,third,DIVIDE,0,BUUxy,,,,,0,10,10,4,,,,,,space,1.61920333613,1,1,3.65297096252,2015_Jul_24_1535,243.790238018,KRITL,001,31030,
,,,,,,,,"('DOUBLE', 'DECREASE', 'TRIPLE', 'DIVIDE', 'x', 'y')",decrease,4,"(1, 3, 2, 4)",4,4,4,4,triple,double,DIVIDE,UUUBxy,,,,,0,11,11,17,,,,,,space,3.07010993402,4,1,5.89615533623,2015_Jul_24_1535,243.790238018,KRITL,001,31030,
,,,,,,,,"('DIVIDE', 'DOUBLE', 'x', 'y')",double,2,"(12, 2)",2,2,6,6,0,DIVIDE,0,BUxy,,,,,0,12,12,1,,,,,,space,1.70024437946,2,1,1.56422827276,2015_Jul_24_1535,243.790238018,KRITL,001,31030,
,,,,,,,,"('DECREASE', 'ADD', 'DOUBLE', 'THIRD', 'x', 'y')",ADD,4,"(3, 6, 10, 9)",9,9,4,9,double,decrease ,third,UBUUxy,,,,,0,13,13,12,,,,,,space,4.61821153964,9,1,6.39407917787,2015_Jul_24_1535,243.790238018,KRITL,001,31030,
,,,,,,,,"('SUBTRACT', 'HALF', 'TRIPLE', 'x', 'y')",half,3,"(12, 6, 2)",2,2,4,4,triple,SUBTRACT,0,BUUxy,,,,,0,14,14,5,,,,,,space,1.95371487987,2,1,4.49912281655,2015_Jul_24_1535,243.790238018,KRITL,001,31030,
,,,,,,,,"('DOUBLE', 'DECREASE', 'SUBTRACT', 'x', 'y')",decrease,3,"(5, 4, 8)",8,8,2,7,SUBTRACT,double,0,UUBxy,,,,,0,15,15,8,,,,,,space,2.62420711399,8,1,9.70895112091,2015_Jul_24_1535,243.790238018,KRITL,001,31030,
,,,,,,,,"('ADD', 'DOUBLE', 'x', 'y')",double,2,"(4, 8)",8,8,4,2,0,ADD,0,BUxy,,,,,0,16,16,0,,,,,,space,1.27160910761,8,1,3.28823622252,2015_Jul_24_1535,243.790238018,KRITL,001,31030,
,,,,,,,,"('DECREASE', 'HALF', 'TRIPLE', 'DIVIDE', 'x', 'y')",half,4,"(4, 12, 6, 5)",5,5,2,8,triple,decrease,DIVIDE,UUUBxy,,,,,0,17,17,16,,,,,,space,2.04381822754,5,1,6.53278125427,2015_Jul_24_1535,243.790238018,KRITL,001,31030,
,,,,,,,,"('ADD', 'DECREASE', 'x', 'y')",decrease,2,"(2, 7)",7,7,5,3,0,ADD,0,BUxy,,,,,0,0,0,0,,,,,,space,0.807005289011,7,1,2.60180560156,2015_Jul_24_1535,243.790238018,KRITL,001,31030,
,,,,,,,,"('THIRD', 'HALF', 'INCREASE', 'SUBTRACT', 'x', 'y')",half,4,"(5, 6, 3, 1)",1,1,2,7,increase,third,SUBTRACT,UUUBxy,,,,,0,1,1,17,,,,,,space,0.137869863247,4,0,3.40598808514,2015_Jul_24_1535,243.790238018,KRITL,001,31030,
,,,,,,,,"('DOUBLE', 'SUBTRACT', 'INCREASE', 'x', 'y')",SUBTRACT,3,"(4, 1, 2)",2,2,3,3,increase,double,0,UBUxy,,,,,0,2,2,6,,,,,,space,1.99087295245,2,1,3.78470106644,2015_Jul_24_1535,243.790238018,KRITL,001,31030,
,,,,,,,,"('DIVIDE', 'DECREASE', 'x', 'y')",decrease,2,"(8, 2)",2,2,4,9,0,DIVIDE,0,BUxy,,,,,0,3,3,1,,,,,,space,2.47491269285,2,1,2.06795590883,2015_Jul_24_1535,243.790238018,KRITL,001,31030,
,,,,,,,,"('DECREASE', 'TIMES', 'x', 'y')",TIMES,2,"(9, 8)",8,8,3,3,0,decrease,0,UBxy,,,,,0,4,4,2,,,,,,space,0.880441275949,8,1,4.78466816992,2015_Jul_24_1535,243.790238018,KRITL,001,31030,
,,,,,,,,"('ADD', 'DECREASE', 'THIRD', 'DOUBLE', 'x', 'y')",decrease,4,"(18, 6, 5, 9)",9,9,4,9,third,ADD,double,BUUUxy,,,,,0,5,5,10,,,,,,space,4.06077815779,4,0,9.31795652123,2015_Jul_24_1535,243.790238018,KRITL,001,31030,
,,,,,,,,"('DECREASE', 'SUBTRACT', 'DOUBLE', 'THIRD', 'x', 'y')",SUBTRACT,4,"(3, 6, 4, 3)",3,3,2,9,double,decrease,third,UBUUxy,,,,,0,6,6,13,,,,,,space,3.00673189748,4,0,8.42920501245,2015_Jul_24_1535,243.790238018,KRITL,001,31030,
,,,,,,,,"('INCREASE', 'ADD', 'HALF', 'x', 'y')",ADD,3,"(1, 4, 5)",5,5,3,2,half,increase,0,UBUxy,,,,,0,7,7,7,,,,,,space,1.68531073781,3,0,6.54078701889,2015_Jul_24_1535,243.790238018,KRITL,001,31030,
,,,,,,,,"('INCREASE', 'HALF', 'THIRD', 'TIMES', 'x', 'y')",half,4,"(12, 4, 2, 3)",3,3,4,3,third,increase,TIMES,UUUBxy,,,,,0,8,8,16,,,,,,space,8.04270744347,3,1,5.15276675881,2015_Jul_24_1535,243.790238018,KRITL,001,31030,
,,,,,,,,"('DECREASE', 'TRIPLE', 'SUBTRACT', 'DOUBLE', 'x', 'y')",triple,4,"(6, 3, 9, 8)",8,8,3,3,SUBTRACT,decrease,double,UUBUxy,,,,,0,9,9,15,,,,,,space,3.43945474294,3,0,7.75546336744,2015_Jul_24_1535,243.790238018,KRITL,001,31030,
,,,,,,,,"('ADD', 'TRIPLE', 'DOUBLE', 'DECREASE', 'x', 'y')",triple,4,"(1, 2, 6, 8)",8,8,2,2,double,ADD,decrease,BUUUxy,,,,,0,10,10,11,,,,,,space,3.63455588411,8,1,6.27443086315,2015_Jul_24_1535,243.790238018,KRITL,001,31030,
,,,,,,,,"('ADD', 'TRIPLE', 'HALF', 'x', 'y')",triple,3,"(2, 6, 8)",8,8,2,4,half,ADD,0,BUUxy,,,,,0,11,11,5,,,,,,space,1.07651811535,8,1,8.04734410963,2015_Jul_24_1535,243.790238018,KRITL,001,31030,
,,,,,,,,"('DOUBLE', 'THIRD', 'ADD', 'x', 'y')",third,3,"(9, 3, 6)",6,6,4,5,ADD,double,0,UUBxy,,,,,0,12,12,8,,,,,,space,1.33320163039,4,0,8.55495249073,2015_Jul_24_1535,243.790238018,KRITL,001,31030,
,,,,,,,,"('HALF', 'ADD', 'x', 'y')",ADD,2,"(12, 6)",6,6,8,4,0,half,0,UBxy,,,,,0,13,13,3,,,,,,space,1.27647150017,6,1,1.39792597643,2015_Jul_24_1535,243.790238018,KRITL,001,31030,
,,,,,,,,"('DECREASE', 'DOUBLE', 'TIMES', 'THIRD', 'x', 'y')",double,4,"(1, 3, 6, 5)",5,5,3,3,TIMES,decrease,third,UUBUxy,,,,,0,14,14,14,,,,,,space,5.97452265857,5,1,5.96706423681,2015_Jul_24_1535,243.790238018,KRITL,001,31030,
,,,,,,,,"('HALF', 'INCREASE', 'TIMES', 'x', 'y')",increase,3,"(9, 10, 5)",5,5,3,3,TIMES,half,0,UUBxy,,,,,0,15,15,9,,,,,,space,1.35744080105,9,0,7.15571730095,2015_Jul_24_1535,243.790238018,KRITL,001,31030,
,,,,,,,,"('DECREASE', 'ADD', 'THIRD', 'HALF', 'x', 'y')",ADD,4,"(3, 1, 7, 6)",6,6,6,6,third,decrease,half,UBUUxy,,,,,0,16,16,12,,,,,,space,9.18011955457,8,0,10.6848781829,2015_Jul_24_1535,243.790238018,KRITL,001,31030,
,,,,,,,,"('ADD', 'DOUBLE', 'DECREASE', 'x', 'y')",double,3,"(1, 2, 7)",7,7,5,2,decrease,ADD,0,BUUxy,,,,,0,17,17,4,,,,,,space,2.0119355045,7,1,3.12427903147,2015_Jul_24_1535,243.790238018,KRITL,001,31030,
,,,,,,,,"('SUBTRACT', 'DOUBLE', 'DECREASE', 'x', 'y')",double,3,"(8, 16, 7)",7,7,9,9,decrease,SUBTRACT,0,BUUxy,,,,,0,0,0,5,,,,,,space,3.85735593486,7,1,7.29220725817,2015_Jul_24_1535,243.790238018,KRITL,001,31030,
,,,,,,,,"('INCREASE', 'TRIPLE', 'HALF', 'ADD', 'x', 'y')",triple,4,"(4, 2, 6, 7)",7,7,2,2,half,increase,ADD,UUUBxy,,,,,0,1,1,17,,,,,,space,3.03638675308,7,1,4.61081891105,2015_Jul_24_1535,243.790238018,KRITL,001,31030,
,,,,,,,,"('THIRD', 'INCREASE', 'SUBTRACT', 'HALF', 'x', 'y')",increase,4,"(4, 2, 3, 1)",1,1,2,8,SUBTRACT,third,half,UUBUxy,,,,,0,2,2,15,,,,,,space,4.54861255229,2,0,9.09746237984,2015_Jul_24_1535,243.790238018,KRITL,001,31030,
,,,,,,,,"('SUBTRACT', 'THIRD', 'x', 'y')",third,2,"(3, 1)",1,1,2,9,0,SUBTRACT,0,BUxy,,,,,0,3,3,0,,,,,,space,1.1157108756,1,1,2.10671051475,2015_Jul_24_1535,243.790238018,KRITL,001,31030,
,,,,,,,,"('DECREASE', 'DIVIDE', 'TRIPLE', 'DOUBLE', 'x', 'y')",DIVIDE,4,"(6, 18, 2, 1)",1,1,9,3,triple,decrease,double,UBUUxy,,,,,0,4,4,12,,,,,,space,3.17946967232,3,0,15.0290301707,2015_Jul_24_1535,243.790238018,KRITL,001,31030,
,,,,,,,,"('TRIPLE', 'SUBTRACT', 'x', 'y')",SUBTRACT,2,"(2, 6)",6,6,6,8,0,triple,0,UBxy,,,,,0,5,5,3,,,,,,space,1.31444568763,6,1,3.29343563004,2015_Jul_24_1535,243.790238018,KRITL,001,31030,
,,,,,,,,"('ADD', 'DECREASE', 'HALF', 'x', 'y')",decrease,3,"(3, 2, 6)",6,6,4,6,half,ADD,0,BUUxy,,,,,0,6,6,4,,,,,,space,1.04432777438,8,0,4.54067818023,2015_Jul_24_1535,243.790238018,KRITL,001,31030,
,,,,,,,,"('TIMES', 'THIRD', 'x', 'y')",third,2,"(1, 4)",4,4,4,3,0,TIMES,0,BUxy,,,,,0,7,7,1,,,,,,space,1.89401215978,4,1,2.93869549717,2015_Jul_24_1535,243.790238018,KRITL,001,31030,
,,,,,,,,"('TRIPLE', 'HALF', 'TIMES', 'x', 'y')",half,3,"(6, 3, 9)",9,9,3,2,TIMES,triple,0,UUBxy,,,,,0,8,8,9,,,,,,space,1.45997800131,9,1,8.96174024238,2015_Jul_24_1535,243.790238018,KRITL,001,31030,
,,,,,,,,"('INCREASE', 'HALF', 'TIMES', 'TRIPLE', 'x', 'y')",half,4,"(6, 12, 6, 7)",7,7,2,2,TIMES,increase,triple,UUBUxy,,,,,0,9,9,14,,,,,,space,9.40109944524,4,0,9.9214020517,2015_Jul_24_1535,243.790238018,KRITL,001,31030,
,,,,,,,,"('TRIPLE', 'SUBTRACT', 'INCREASE', 'HALF', 'x', 'y')",SUBTRACT,4,"(3, 4, 1, 3)",3,3,3,6,increase,triple,half,UBUUxy,,,,,0,10,10,13,,,,,,space,7.83387653495,4,0,6.50040228304,2015_Jul_24_1535,243.790238018,KRITL,001,31030,
,,,,,,,,"('INCREASE', 'TIMES', 'x', 'y')",TIMES,2,"(8, 9)",9,9,4,2,0,increase,0,UBxy,,,,,0,11,11,2,,,,,,space,1.08108233911,9,1,4.16392499441,2015_Jul_24_1535,243.790238018,KRITL,001,31030,
,,,,,,,,"('DECREASE', 'HALF', 'DIVIDE', 'x', 'y')",half,3,"(4, 2, 1)",1,1,2,8,DIVIDE,decrease,0,UUBxy,,,,,0,12,12,8,,,,,,space,1.30309392215,3,0,4.40680454997,2015_Jul_24_1535,243.790238018,KRITL,001,31030,
,,,,,,,,"('INCREASE', 'DIVIDE', 'HALF', 'x', 'y')",DIVIDE,3,"(2, 1, 2)",2,2,2,4,half,increase,0,UBUxy,,,,,0,13,13,7,,,,,,space,1.36772132828,2,1,4.32932893455,2015_Jul_24_1535,243.790238018,KRITL,001,31030,
,,,,,,,,"('DIVIDE', 'DECREASE', 'THIRD', 'DOUBLE', 'x', 'y')",decrease,4,"(12, 4, 3, 1)",1,1,3,6,third,DIVIDE,double,BUUUxy,,,,,0,14,14,10,,,,,,space,2.80197316414,1,1,8.18181722733,2015_Jul_24_1535,243.790238018,KRITL,001,31030,
,,,,,,,,"('DOUBLE', 'TIMES', 'THIRD', 'x', 'y')",TIMES,3,"(1, 4, 8)",8,8,4,3,third,double,0,UBUxy,,,,,0,15,15,6,,,,,,space,2.28069800918,8,1,6.96707088617,2015_Jul_24_1535,243.790238018,KRITL,001,31030,
,,,,,,,,"('TIMES', 'DECREASE', 'THIRD', 'DOUBLE', 'x', 'y')",decrease,4,"(6, 2, 1, 2)",2,2,2,3,third,TIMES,double,BUUUxy,,,,,0,16,16,11,,,,,,space,5.42901323247,2,1,7.00858425419,2015_Jul_24_1535,243.790238018,KRITL,001,31030,
,,,,,,,,"('DECREASE', 'HALF', 'TRIPLE', 'ADD', 'x', 'y')",half,4,"(4, 12, 6, 5)",5,5,2,2,triple,decrease,ADD,UUUBxy,,,,,0,17,17,16,,,,,,space,4.70464237058,5,1,5.21638032072,2015_Jul_24_1535,243.790238018,KRITL,001,31030,
,,,,,,,,"('ADD', 'HALF', 'x', 'y')",half,2,"(2, 7)",7,7,5,4,0,ADD,0,BUxy,,,,,0,0,0,0,,,,,,space,1.04642160592,7,1,2.44657509989,2015_Jul_24_1535,243.790238018,KRITL,001,31030,
,,,,,,,,"('INCREASE', 'TIMES', 'TRIPLE', 'HALF', 'x', 'y')",TIMES,4,"(1, 3, 6, 7)",7,7,2,2,triple,increase,half,UBUUxy,,,,,0,1,1,13,,,,,,space,6.1027398291,7,1,4.66367074597,2015_Jul_24_1535,243.790238018,KRITL,001,31030,
,,,,,,,,"('TRIPLE', 'INCREASE', 'DIVIDE', 'DOUBLE', 'x', 'y')",increase,4,"(16, 2, 3, 9)",9,9,8,8,DIVIDE,triple,double,UUBUxy,,,,,0,2,2,15,,,,,,space,3.62253673829,9,1,12.2308884068,2015_Jul_24_1535,243.790238018,KRITL,001,31030,
,,,,,,,,"('SUBTRACT', 'INCREASE', 'HALF', 'x', 'y')",increase,3,"(4, 5, 3)",3,3,2,8,half,SUBTRACT,0,BUUxy,,,,,0,3,3,5,,,,,,space,3.07152028685,7,0,0.214938821155,2015_Jul_24_1535,243.790238018,KRITL,001,31030,
,,,,,,,,"('DIVIDE', 'TRIPLE', 'DECREASE', 'x', 'y')",triple,3,"(6, 18, 9)",9,9,2,7,decrease,DIVIDE,0,BUUxy,,,,,0,4,4,4,,,,,,space,2.31455102656,7,0,5.9984339134,2015_Jul_24_1535,243.790238018,KRITL,001,31030,
,,,,,,,,"('DOUBLE', 'DIVIDE', 'x', 'y')",DIVIDE,2,"(1, 2)",2,2,8,8,0,double,0,UBxy,,,,,0,5,5,2,,,,,,space,1.46047494945,2,1,3.99765104515,2015_Jul_24_1535,243.790238018,KRITL,001,31030,
,,,,,,,,"('TRIPLE', 'HALF', 'ADD', 'x', 'y')",half,3,"(6, 3, 9)",9,9,3,3,ADD,triple,0,UUBxy,,,,,0,6,6,8,,,,,,space,3.19616328034,9,1,3.06463405542,2015_Jul_24_1535,243.790238018,KRITL,001,31030,
,,,,,,,,"('HALF', 'SUBTRACT', 'DECREASE', 'TRIPLE', 'x', 'y')",SUBTRACT,4,"(15, 14, 10, 5)",5,5,4,5,decrease,half,triple,UBUUxy,,,,,0,7,7,12,,,,,,space,10.2038873244,4,0,6.03645324614,2015_Jul_24_1535,243.790238018,KRITL,001,31030,
,,,,,,,,"('INCREASE', 'DIVIDE', 'x', 'y')",DIVIDE,2,"(4, 5)",5,5,2,8,0,increase,0,UBxy,,,,,0,8,8,3,,,,,,space,1.6507080986,5,1,1.61471435457,2015_Jul_24_1535,243.790238018,KRITL,001,31030,
,,,,,,,,"('TRIPLE', 'DOUBLE', 'SUBTRACT', 'INCREASE', 'x', 'y')",double,4,"(5, 1, 2, 6)",6,6,4,4,SUBTRACT,triple,increase,UUBUxy,,,,,0,9,9,14,,,,,,space,5.00442318839,6,1,7.57743029512,2015_Jul_24_1535,243.790238018,KRITL,001,31030,
,,,,,,,,"('TRIPLE', 'INCREASE', 'SUBTRACT', 'x', 'y')",increase,3,"(1, 2, 6)",6,6,2,3,SUBTRACT,triple,0,UUBxy,,,,,0,10,10,9,,,,,,space,4.37877072528,6,1,5.75489992619,2015_Jul_24_1535,243.790238018,KRITL,001,31030,
,,,,,,,,"('INCREASE', 'DIVIDE', 'TRIPLE', 'x', 'y')",DIVIDE,3,"(6, 2, 3)",3,3,3,2,triple,increase,0,UBUxy,,,,,0,11,11,7,,,,,,space,2.00443893683,3,1,4.04573357769,2015_Jul_24_1535,243.790238018,KRITL,001,31030,
,,,,,,,,"('SUBTRACT', 'TRIPLE', 'x', 'y')",triple,2,"(12, 9)",9,9,3,4,0,SUBTRACT,0,BUxy,,,,,0,12,12,1,,,,,,space,1.82710824127,9,1,3.01688818773,2015_Jul_24_1535,243.790238018,KRITL,001,31030,
,,,,,,,,"('DECREASE', 'THIRD', 'DOUBLE', 'ADD', 'x', 'y')",third,4,"(9, 18, 6, 5)",5,5,4,5,double,decrease,ADD,UUUBxy,,,,,0,13,13,16,,,,,,space,2.11524157453,7,0,6.81558709347,2015_Jul_24_1535,243.790238018,KRITL,001,31030,
,,,,,,,,"('THIRD', 'INCREASE', 'HALF', 'TIMES', 'x', 'y')",increase,4,"(28, 14, 15, 5)",5,5,4,7,half,third,TIMES,UUUBxy,,,,,0,14,14,17,,,,,,space,11.8482673833,5,1,6.78253759223,2015_Jul_24_1535,243.790238018,KRITL,001,31030,
,,,,,,,,"('DIVIDE', 'DOUBLE', 'INCREASE', 'TRIPLE', 'x', 'y')",double,4,"(9, 10, 20, 5)",5,5,4,3,increase,DIVIDE,triple,BUUUxy,,,,,0,15,15,10,,,,,,space,4.77815604943,5,1,15.5028625263,2015_Jul_24_1535,243.790238018,KRITL,001,31030,
,,,,,,,,"('HALF', 'TIMES', 'DECREASE', 'x', 'y')",TIMES,3,"(8, 16, 8)",8,8,2,9,decrease,half,0,UBUxy,,,,,0,16,16,6,,,,,,space,1.33927384677,8,1,4.89031094604,2015_Jul_24_1535,243.790238018,KRITL,001,31030,
,,,,,,,,"('TIMES', 'HALF', 'INCREASE', 'THIRD', 'x', 'y')",half,4,"(1, 2, 1, 9)",9,9,9,3,increase,TIMES,third,BUUUxy,,,,,0,17,17,11,,,,,,space,4.49363853881,9,1,14.6864096231,2015_Jul_24_1535,243.790238018,KRITL,001,31030,
,,,,,,,,"('THIRD', 'ADD', 'x', 'y')",ADD,2,"(9, 3)",3,3,5,4,0,third,0,UBxy,,,,,0,0,0,2,,,,,,space,0.858905923145,3,1,2.59643051249,2015_Jul_24_1535,243.790238018,KRITL,001,31030,
,,,,,,,,"('INCREASE', 'DIVIDE', 'TRIPLE', 'DOUBLE', 'x', 'y')",DIVIDE,4,"(6, 18, 3, 4)",4,4,6,3,triple,increase,double,UBUUxy,,,,,0,1,1,12,,,,,,space,2.40466662304,8,0,13.6197233819,2015_Jul_24_1535,243.790238018,KRITL,001,31030,
,,,,,,,,"('THIRD', 'DOUBLE', 'ADD', 'INCREASE', 'x', 'y')",double,4,"(10, 12, 24, 8)",8,8,2,9,ADD,third,increase,UUBUxy,,,,,0,2,2,14,,,,,,space,3.83658140269,4,0,9.8464913186,2015_Jul_24_1535,243.790238018,KRITL,001,31030,
,,,,,,,,"('TIMES', 'DECREASE', 'HALF', 'x', 'y')",decrease,3,"(4, 3, 9)",9,9,3,8,half,TIMES,0,BUUxy,,,,,0,3,3,4,,,,,,space,2.36365335278,8,0,5.00897061388,2015_Jul_24_1535,243.790238018,KRITL,001,31030,
,,,,,,,,"('THIRD', 'TIMES', 'DECREASE', 'x', 'y')",TIMES,3,"(3, 15, 5)",5,5,5,4,decrease,third,0,UBUxy,,,,,0,4,4,7,,,,,,space,2.83339568519,5,1,3.89637476328,2015_Jul_24_1535,243.790238018,KRITL,001,31030,
,,,,,,,,"('THIRD', 'DECREASE', 'TIMES', 'x', 'y')",decrease,3,"(25, 24, 8)",8,8,5,5,TIMES,third,0,UUBxy,,,,,0,5,5,8,,,,,,space,1.78196925146,4,0,18.9869873079,2015_Jul_24_1535,243.790238018,KRITL,001,31030,
,,,,,,,,"('TIMES', 'INCREASE', 'THIRD', 'DOUBLE', 'x', 'y')",increase,4,"(6, 2, 3, 9)",9,9,3,3,third,TIMES,double,BUUUxy,,,,,0,6,6,11,,,,,,space,3.4998073451,9,1,8.18753178103,2015_Jul_24_1535,243.790238018,KRITL,001,31030,
,,,,,,,,"('TRIPLE', 'HALF', 'DIVIDE', 'x', 'y')",half,3,"(2, 1, 3)",3,3,2,4,DIVIDE,triple,0,UUBxy,,,,,0,7,7,9,,,,,,space,4.33929729433,3,1,10.1050047927,2015_Jul_24_1535,243.790238018,KRITL,001,31030,
,,,,,,,,"('TIMES', 'INCREASE', 'x', 'y')",increase,2,"(3, 6)",6,6,2,2,0,TIMES,0,BUxy,,,,,0,8,8,1,,,,,,space,0.930114042596,6,1,5.19782455696,2015_Jul_24_1535,243.790238018,KRITL,001,31030,
,,,,,,,,"('TIMES', 'THIRD', 'HALF', 'x', 'y')",third,3,"(3, 1, 5)",5,5,5,6,half,TIMES,0,BUUxy,,,,,0,9,9,5,,,,,,space,1.01083276956,5,1,5.22247423482,2015_Jul_24_1535,243.790238018,KRITL,001,31030,
,,,,,,,,"('TRIPLE', 'DECREASE', 'HALF', 'TIMES', 'x', 'y')",decrease,4,"(6, 3, 2, 6)",6,6,2,3,half,triple,TIMES,UUUBxy,,,,,0,10,10,17,,,,,,space,5.71581775439,3,0,14.0913803645,2015_Jul_24_1535,243.790238018,KRITL,001,31030,
,,,,,,,,"('THIRD', 'INCREASE', 'HALF', 'DIVIDE', 'x', 'y')",increase,4,"(4, 2, 3, 1)",1,1,2,8,half,third,DIVIDE,UUUBxy,,,,,0,11,11,16,,,,,,space,4.88743739593,1,1,5.03549644595,2015_Jul_24_1535,243.790238018,KRITL,001,31030,
,,,,,,,,"('TRIPLE', 'HALF', 'ADD', 'DECREASE', 'x', 'y')",half,4,"(1, 4, 2, 6)",6,6,3,2,ADD,triple,decrease,UUBUxy,,,,,0,12,12,15,,,,,,space,2.33798178157,6,1,6.6431849337,2015_Jul_24_1535,243.790238018,KRITL,001,31030,
,,,,,,,,"('TRIPLE', 'SUBTRACT', 'DOUBLE', 'DECREASE', 'x', 'y')",SUBTRACT,4,"(2, 4, 1, 3)",3,3,3,3,double,triple,decrease,UBUUxy,,,,,0,13,13,13,,,,,,space,5.10024213971,3,1,7.695198606,2015_Jul_24_1535,243.790238018,KRITL,001,31030,
,,,,,,,,"('THIRD', 'ADD', 'INCREASE', 'x', 'y')",ADD,3,"(8, 15, 5)",5,5,7,7,increase,third,0,UBUxy,,,,,0,14,14,6,,,,,,space,3.70208763715,3,0,12.4307955965,2015_Jul_24_1535,243.790238018,KRITL,001,31030,
,,,,,,,,"('THIRD', 'SUBTRACT', 'x', 'y')",SUBTRACT,2,"(3, 1)",1,1,2,5,0,third,0,UBxy,,,,,0,15,15,3,,,,,,space,0.939631649468,1,1,2.66981995432,2015_Jul_24_1535,243.790238018,KRITL,001,31030,
,,,,,,,,"('SUBTRACT', 'HALF', 'INCREASE', 'TRIPLE', 'x', 'y')",half,4,"(15, 16, 8, 3)",3,3,5,5,increase,SUBTRACT,triple,BUUUxy,,,,,0,16,16,10,,,,,,space,3.18653018557,4,0,18.3816712226,2015_Jul_24_1535,243.790238018,KRITL,001,31030,
,,,,,,,,"('TIMES', 'DECREASE', 'x', 'y')",decrease,2,"(2, 4)",4,4,2,3,0,TIMES,0,BUxy,,,,,0,17,17,0,,,,,,space,0.876949690341,4,1,2.11823341239,2015_Jul_24_1535,243.790238018,KRITL,001,31030,
,,,,,,,,"('INCREASE', 'SUBTRACT', 'HALF', 'x', 'y')",SUBTRACT,3,"(4, 2, 3)",3,3,2,8,half,increase,0,UBUxy,,,,,0,0,0,7,,,,,,space,1.40134966915,3,1,3.53449117584,2015_Jul_24_1535,243.790238018,KRITL,001,31030,
,,,,,,,,"('DOUBLE', 'ADD', 'INCREASE', 'THIRD', 'x', 'y')",ADD,4,"(1, 2, 4, 8)",8,8,2,3,increase,double,third,UBUUxy,,,,,0,1,1,12,,,,,,space,3.8354377221,8,1,5.37020046962,2015_Jul_24_1535,243.790238018,KRITL,001,31030,
,,,,,,,,"('DIVIDE', 'DECREASE', 'TRIPLE', 'x', 'y')",decrease,3,"(9, 8, 4)",4,4,2,3,triple,DIVIDE,0,BUUxy,,,,,0,2,2,5,,,,,,space,2.46554207068,5,0,5.61182155646,2015_Jul_24_1535,243.790238018,KRITL,001,31030,
,,,,,,,,"('THIRD', 'TIMES', 'DOUBLE', 'DECREASE', 'x', 'y')",TIMES,4,"(1, 2, 6, 2)",2,2,3,2,double,third,decrease,UBUUxy,,,,,0,3,3,13,,,,,,space,1.71932438848,2,1,6.48435400764,2015_Jul_24_1535,243.790238018,KRITL,001,31030,
,,,,,,,,"('THIRD', 'DOUBLE', 'ADD', 'DECREASE', 'x', 'y')",double,4,"(5, 12, 24, 8)",8,8,7,6,ADD,third,decrease,UUBUxy,,,,,0,4,4,14,,,,,,space,3.94262978662,6,0,7.19652024307,2015_Jul_24_1535,243.790238018,KRITL,001,31030,
,,,,,,,,"('INCREASE', 'ADD', 'x', 'y')",ADD,2,"(5, 6)",6,6,2,3,0,increase,0,UBxy,,,,,0,5,5,3,,,,,,space,0.76549822028,6,1,2.76604871283,2015_Jul_24_1535,243.790238018,KRITL,001,31030,
,,,,,,,,"('ADD', 'DOUBLE', 'DECREASE', 'THIRD', 'x', 'y')",double,4,"(2, 1, 2, 8)",8,8,6,6,decrease,ADD,third,BUUUxy,,,,,0,6,6,10,,,,,,space,3.49881764839,8,1,6.88593500265,2015_Jul_24_1535,243.790238018,KRITL,001,31030,
,,,,,,,,"('THIRD', 'DOUBLE', 'INCREASE', 'TIMES', 'x', 'y')",double,4,"(8, 9, 18, 6)",6,6,4,2,increase,third,TIMES,UUUBxy,,,,,0,7,7,17,,,,,,space,6.54279265954,2,0,8.17527186038,2015_Jul_24_1535,243.790238018,KRITL,001,31030,
,,,,,,,,"('HALF', 'ADD', 'TRIPLE', 'x', 'y')",ADD,3,"(9, 12, 6)",6,6,3,3,triple,half,0,UBUxy,,,,,0,8,8,6,,,,,,space,1.19698849425,4,0,10.9693159019,2015_Jul_24_1535,243.790238018,KRITL,001,31030,
,,,,,,,,"('DIVIDE', 'INCREASE', 'x', 'y')",increase,2,"(4, 2)",2,2,2,3,0,DIVIDE,0,BUxy,,,,,0,9,9,0,,,,,,space,0.833553518692,2,1,2.91811344487,2015_Jul_24_1535,243.790238018,KRITL,001,31030,
,,,,,,,,"('SUBTRACT', 'DECREASE', 'TRIPLE', 'DOUBLE', 'x', 'y')",decrease,4,"(6, 18, 17, 8)",8,8,9,3,triple,SUBTRACT,double,BUUUxy,,,,,0,10,10,11,,,,,,space,3.62952445913,8,1,9.01649972826,2015_Jul_24_1535,243.790238018,KRITL,001,31030,
,,,,,,,,"('HALF', 'TRIPLE', 'INCREASE', 'DIVIDE', 'x', 'y')",triple,4,"(3, 4, 12, 6)",6,6,3,9,increase,half,DIVIDE,UUUBxy,,,,,0,11,11,16,,,,,,space,3.32506497944,6,1,6.03681370849,2015_Jul_24_1535,243.790238018,KRITL,001,31030,
,,,,,,,,"('THIRD', 'INCREASE', 'DIVIDE', 'DOUBLE', 'x', 'y')",increase,4,"(18, 2, 3, 1)",1,1,9,9,DIVIDE,third,double,UUBUxy,,,,,0,12,12,15,,,,,,space,2.37145683845,1,1,6.84253638133,2015_Jul_24_1535,243.790238018,KRITL,001,31030,
,,,,,,,,"('ADD', 'HALF', 'THIRD', 'x', 'y')",half,3,"(2, 1, 9)",9,9,8,6,third,ADD,0,BUUxy,,,,,0,13,13,4,,,,,,space,1.02428921545,3,0,6.42696909577,2015_Jul_24_1535,243.790238018,KRITL,001,31030,
,,,,,,,,"('SUBTRACT', 'DECREASE', 'x', 'y')",decrease,2,"(5, 3)",3,3,2,6,0,SUBTRACT,0,BUxy,,,,,0,14,14,1,,,,,,space,1.6918886514,3,1,2.14894655743,2015_Jul_24_1535,243.790238018,KRITL,001,31030,
,,,,,,,,"('THIRD', 'HALF', 'ADD', 'x', 'y')",half,3,"(6, 3, 1)",1,1,3,3,ADD,third,0,UUBxy,,,,,0,15,15,9,,,,,,space,2.86623310857,1,1,3.17389125447,2015_Jul_24_1535,243.790238018,KRITL,001,31030,
,,,,,,,,"('DECREASE', 'DIVIDE', 'x', 'y')",DIVIDE,2,"(2, 1)",1,1,4,8,0,decrease,0,UBxy,,,,,0,16,16,2,,,,,,space,2.02333066543,3,0,2.88395665912,2015_Jul_24_1535,243.790238018,KRITL,001,31030,
,,,,,,,,"('INCREASE', 'TRIPLE', 'DIVIDE', 'x', 'y')",triple,3,"(2, 6, 7)",7,7,3,6,DIVIDE,increase,0,UUBxy,,,,,0,17,17,8,,,,,,space,1.50964796823,8,0,3.71505168435,2015_Jul_24_1535,243.790238018,KRITL,001,31030,
