operationc,operationb,operationa,correctresponse,valuey,operationd,condition,valuex,Rule,Operatora,Length,Intermediate,CorrectResponse,Result,Y,X,Operatorc,Operatorb,Operatord,Structure,practice_trials.thisRepN,practice_trials.thisTrialN,practice_trials.thisN,practice_trials.thisIndex,block.thisRepN,block.thisTrialN,block.thisN,block.thisIndex,practice_encoding.keys,practice_encoding.rt,practice_execution.keys,practice_execution.corr,practice_execution.rt,encoding.keys,encoding.rt,execution.keys,execution.corr,execution.rt,date,frameRate,expName,session,participant,
increase,DIVIDE,triple,3,3,0,3,2,,,,,,,,,,,,,0,0,0,4,,,,,['space'],[3.0558671202743426],4,0,7.94403453998,,,,,,2017_Apr_14_1300,245.000514434,KRITL,001,31031,
ADD,triple ,half,8,2,0,3,4,,,,,,,,,,,,,0,1,1,3,,,,,['space'],[3.1799564715474844],8,1,7.68552246573,,,,,,2017_Apr_14_1300,245.000514434,KRITL,001,31031,
0,decrease,TIMES,8,3,0,2,3,,,,,,,,,,,,,0,2,2,1,,,,,['space'],[6.183107192744501],8,1,2.43561389367,,,,,,2017_Apr_14_1300,245.000514434,KRITL,001,31031,
0,ADD,decrease,7,5,0,2,3,,,,,,,,,,,,,0,3,3,0,,,,,['space'],[4.876015287823975],7,1,1.79368952851,,,,,,2017_Apr_14_1300,245.000514434,KRITL,001,31031,
0,ADD,half,7,5,0,2,4,,,,,,,,,,,,,0,4,4,2,,,,,['space'],[2.6949294841033407],7,1,1.43194102694,,,,,,2017_Apr_14_1300,245.000514434,KRITL,001,31031,
increase,DIVIDE,double,9,8,triple,4,8,,,,,,,,,,,,,0,5,5,5,,,,,['space'],[7.020745135232573],9,1,14.9471145686,,,,,,2017_Apr_14_1300,245.000514434,KRITL,001,31031,
,,,,,,,,"('DECREASE', 'THIRD', 'TIMES', 'HALF', 'x', 'y')",third,4,"(2, 12, 4, 3)",3,3,6,4,TIMES,decrease,half,UUBUxy,,,,,0,0,0,14,,,,,,space,13.2577561532,2,0,14.9650743445,2017_Apr_14_1300,245.000514434,KRITL,001,31031,
,,,,,,,,"('HALF', 'SUBTRACT', 'TRIPLE', 'x', 'y')",SUBTRACT,3,"(9, 2, 1)",1,1,7,3,triple,half,0,UBUxy,,,,,0,1,1,6,,,,,,space,8.17798197758,1,1,3.28473203821,2017_Apr_14_1300,245.000514434,KRITL,001,31031,
,,,,,,,,"('DOUBLE', 'TRIPLE', 'SUBTRACT', 'x', 'y')",triple,3,"(1, 3, 6)",6,6,3,4,SUBTRACT,double,0,UUBxy,,,,,0,2,2,9,,,,,,space,4.2178946127,6,1,2.99404537136,2017_Apr_14_1300,245.000514434,KRITL,001,31031,
,,,,,,,,"('ADD', 'DOUBLE', 'x', 'y')",double,2,"(4, 8)",8,8,4,2,0,ADD,0,BUxy,,,,,0,3,3,0,,,,,,space,4.69902055719,8,1,2.049726661,2017_Apr_14_1300,245.000514434,KRITL,001,31031,
,,,,,,,,"('INCREASE', 'DIVIDE', 'THIRD', 'x', 'y')",DIVIDE,3,"(3, 1, 2)",2,2,3,9,third,increase,0,UBUxy,,,,,0,4,4,7,,,,,,space,4.51158396623,8,0,19.7197366455,2017_Apr_14_1300,245.000514434,KRITL,001,31031,
,,,,,,,,"('DOUBLE', 'TRIPLE', 'DIVIDE', 'DECREASE', 'x', 'y')",triple,4,"(8, 1, 3, 6)",6,6,8,9,DIVIDE,double,decrease,UUBUxy,,,,,0,5,5,15,,,,,,space,8.50052687002,6,1,5.46200848941,2017_Apr_14_1300,245.000514434,KRITL,001,31031,
,,,,,,,,"('SUBTRACT', 'HALF', 'TRIPLE', 'x', 'y')",half,3,"(12, 6, 2)",2,2,4,4,triple,SUBTRACT,0,BUUxy,,,,,0,6,6,5,,,,,,space,6.91597481802,2,1,8.18266728867,2017_Apr_14_1300,245.000514434,KRITL,001,31031,
,,,,,,,,"('DOUBLE', 'SUBTRACT', 'x', 'y')",SUBTRACT,2,"(1, 2)",2,2,7,8,0,double,0,UBxy,,,,,0,7,7,2,,,,,,space,2.88599974592,2,1,2.8360795551,2017_Apr_14_1300,245.000514434,KRITL,001,31031,
,,,,,,,,"('DIVIDE', 'INCREASE', 'DOUBLE', 'THIRD', 'x', 'y')",increase,4,"(2, 4, 5, 1)",1,1,5,6,double,DIVIDE,third,BUUUxy,,,,,0,8,8,11,,,,,,space,6.85184331014,2,0,9.15867974175,2017_Apr_14_1300,245.000514434,KRITL,001,31031,
,,,,,,,,"('DECREASE', 'HALF', 'TRIPLE', 'DIVIDE', 'x', 'y')",half,4,"(4, 12, 6, 5)",5,5,2,8,triple,decrease,DIVIDE,UUUBxy,,,,,0,9,9,16,,,,,,space,12.5191382779,5,1,4.67366430312,2017_Apr_14_1300,245.000514434,KRITL,001,31031,
,,,,,,,,"('ADD', 'THIRD', 'INCREASE', 'HALF', 'x', 'y')",third,4,"(2, 3, 1, 7)",7,7,6,4,increase,ADD,half,BUUUxy,,,,,0,10,10,10,,,,,,space,9.87490450373,3,0,13.5061378345,2017_Apr_14_1300,245.000514434,KRITL,001,31031,
,,,,,,,,"('DOUBLE', 'DECREASE', 'TRIPLE', 'DIVIDE', 'x', 'y')",decrease,4,"(1, 3, 2, 4)",4,4,4,4,triple,double,DIVIDE,UUUBxy,,,,,0,11,11,17,,,,,,space,15.7657848404,1,0,6.59897509697,2017_Apr_14_1300,245.000514434,KRITL,001,31031,
,,,,,,,,"('DECREASE', 'ADD', 'DOUBLE', 'THIRD', 'x', 'y')",ADD,4,"(3, 6, 10, 9)",9,9,4,9,double,decrease ,third,UBUUxy,,,,,0,12,12,12,,,,,,space,15.0454469576,9,1,13.7022472205,2017_Apr_14_1300,245.000514434,KRITL,001,31031,
,,,,,,,,"('HALF', 'TIMES', 'x', 'y')",TIMES,2,"(16, 8)",8,8,4,4,0,half,0,UBxy,,,,,0,13,13,3,,,,,,space,7.19954532743,8,1,1.91277860155,2017_Apr_14_1300,245.000514434,KRITL,001,31031,
,,,,,,,,"('DECREASE', 'TIMES', 'DOUBLE', 'THIRD', 'x', 'y')",TIMES,4,"(1, 2, 8, 7)",7,7,4,3,double,decrease,third,UBUUxy,,,,,0,14,14,13,,,,,,space,10.0148510503,7,1,6.61180580806,2017_Apr_14_1300,245.000514434,KRITL,001,31031,
,,,,,,,,"('DOUBLE', 'DECREASE', 'SUBTRACT', 'x', 'y')",decrease,3,"(5, 4, 8)",8,8,2,7,SUBTRACT,double,0,UUBxy,,,,,0,15,15,8,,,,,,space,6.78633469599,2,0,5.39600677669,2017_Apr_14_1300,245.000514434,KRITL,001,31031,
,,,,,,,,"('DIVIDE', 'DOUBLE', 'x', 'y')",double,2,"(12, 2)",2,2,6,6,0,DIVIDE,0,BUxy,,,,,0,16,16,1,,,,,,space,4.83024041439,2,1,2.49683545521,2017_Apr_14_1300,245.000514434,KRITL,001,31031,
,,,,,,,,"('DIVIDE', 'DOUBLE', 'THIRD', 'x', 'y')",double,3,"(2, 4, 1)",1,1,4,6,third,DIVIDE,0,BUUxy,,,,,0,17,17,4,,,,,,space,3.73562183787,1,1,3.02727300406,2017_Apr_14_1300,245.000514434,KRITL,001,31031,
,,,,,,,,"('TRIPLE', 'DECREASE', 'HALF', 'SUBTRACT', 'x', 'y')",decrease,4,"(4, 2, 1, 3)",3,3,5,9,half,triple,SUBTRACT,UUUBxy,,,,,0,0,0,17,,,,,,space,18.4065091808,3,1,4.80613597971,2017_Apr_14_1300,245.000514434,KRITL,001,31031,
,,,,,,,,"('THIRD', 'INCREASE', 'SUBTRACT', 'x', 'y')",increase,3,"(2, 3, 1)",1,1,6,8,SUBTRACT,third,0,UUBxy,,,,,0,1,1,9,,,,,,space,4.98200137817,1,1,4.60948869985,2017_Apr_14_1300,245.000514434,KRITL,001,31031,
,,,,,,,,"('THIRD', 'INCREASE', 'ADD', 'DOUBLE', 'x', 'y')",increase,4,"(16, 20, 21, 7)",7,7,4,8,ADD,third,double,UUBUxy,,,,,0,2,2,14,,,,,,space,11.6866787451,7,1,8.93129761907,2017_Apr_14_1300,245.000514434,KRITL,001,31031,
,,,,,,,,"('THIRD', 'TIMES', 'HALF', 'INCREASE', 'x', 'y')",TIMES,4,"(8, 4, 12, 4)",4,4,3,7,half,third,increase,UBUUxy,,,,,0,3,3,13,,,,,,space,8.22624159168,4,1,6.19509169218,2017_Apr_14_1300,245.000514434,KRITL,001,31031,
,,,,,,,,"('TIMES', 'INCREASE', 'HALF', 'TRIPLE', 'x', 'y')",increase,4,"(6, 3, 4, 8)",8,8,2,2,half,TIMES,triple,BUUUxy,,,,,0,4,4,11,,,,,,space,10.3528685282,8,1,8.10397729996,2017_Apr_14_1300,245.000514434,KRITL,001,31031,
,,,,,,,,"('DOUBLE', 'ADD', 'x', 'y')",ADD,2,"(4, 8)",8,8,2,2,0,double,0,UBxy,,,,,0,5,5,2,,,,,,space,2.73866407041,8,1,3.52452841547,2017_Apr_14_1300,245.000514434,KRITL,001,31031,
,,,,,,,,"('TRIPLE', 'DOUBLE', 'SUBTRACT', 'DECREASE', 'x', 'y')",double,4,"(4, 1, 2, 6)",6,6,3,5,SUBTRACT,triple,decrease,UUBUxy,,,,,0,6,6,15,,,,,,space,4.61148559148,6,1,5.25686724589,2017_Apr_14_1300,245.000514434,KRITL,001,31031,
,,,,,,,,"('DECREASE', 'TRIPLE', 'HALF', 'ADD', 'x', 'y')",triple,4,"(6, 3, 9, 8)",8,8,2,4,half,decrease,ADD,UUUBxy,,,,,0,7,7,16,,,,,,space,10.545510826,8,1,8.04375103457,2017_Apr_14_1300,245.000514434,KRITL,001,31031,
,,,,,,,,"('INCREASE', 'SUBTRACT', 'THIRD', 'x', 'y')",SUBTRACT,3,"(3, 1, 2)",2,2,2,9,third,increase,0,UBUxy,,,,,0,8,8,7,,,,,,space,4.19430392436,2,1,6.00427655372,2017_Apr_14_1300,245.000514434,KRITL,001,31031,
,,,,,,,,"('DECREASE', 'TRIPLE', 'DIVIDE', 'x', 'y')",triple,3,"(2, 6, 5)",5,5,4,8,DIVIDE,decrease,0,UUBxy,,,,,0,9,9,8,,,,,,space,5.3617845478,5,1,4.22988401161,2017_Apr_14_1300,245.000514434,KRITL,001,31031,
,,,,,,,,"('DIVIDE', 'TRIPLE', 'HALF', 'x', 'y')",triple,3,"(4, 12, 4)",4,4,3,8,half,DIVIDE,0,BUUxy,,,,,0,10,10,4,,,,,,space,9.04250831425,4,1,5.97443341787,2017_Apr_14_1300,245.000514434,KRITL,001,31031,
,,,,,,,,"('DOUBLE', 'TIMES', 'x', 'y')",TIMES,2,"(4, 8)",8,8,2,2,0,double,0,UBxy,,,,,0,11,11,3,,,,,,space,2.64478916625,8,1,3.32110094314,2017_Apr_14_1300,245.000514434,KRITL,001,31031,
,,,,,,,,"('TIMES', 'THIRD', 'DOUBLE', 'x', 'y')",third,3,"(6, 2, 4)",4,4,2,3,double,TIMES,0,BUUxy,,,,,0,12,12,5,,,,,,space,7.42962496862,4,1,4.57567942786,2017_Apr_14_1300,245.000514434,KRITL,001,31031,
,,,,,,,,"('SUBTRACT', 'INCREASE', 'x', 'y')",increase,2,"(6, 2)",2,2,4,5,0,SUBTRACT,0,BUxy,,,,,0,13,13,1,,,,,,space,2.30343793624,2,1,5.82805034294,2017_Apr_14_1300,245.000514434,KRITL,001,31031,
,,,,,,,,"('INCREASE', 'DIVIDE', 'TRIPLE', 'HALF', 'x', 'y')",DIVIDE,4,"(2, 6, 2, 3)",3,3,3,4,triple,increase,half,UBUUxy,,,,,0,14,14,12,,,,,,space,5.3489429878,3,1,4.23041630606,2017_Apr_14_1300,245.000514434,KRITL,001,31031,
,,,,,,,,"('DIVIDE', 'DOUBLE', 'INCREASE', 'THIRD', 'x', 'y')",double,4,"(2, 3, 6, 2)",2,2,3,6,increase,DIVIDE,third,BUUUxy,,,,,0,15,15,10,,,,,,space,7.78233846297,2,1,7.69987446812,2017_Apr_14_1300,245.000514434,KRITL,001,31031,
,,,,,,,,"('INCREASE', 'ADD', 'TRIPLE', 'x', 'y')",ADD,3,"(6, 8, 9)",9,9,2,2,triple,increase,0,UBUxy,,,,,0,16,16,6,,,,,,space,5.97105837008,9,1,4.6563064644,2017_Apr_14_1300,245.000514434,KRITL,001,31031,
,,,,,,,,"('ADD', 'THIRD', 'x', 'y')",third,2,"(1, 7)",7,7,6,3,0,ADD,0,BUxy,,,,,0,17,17,0,,,,,,space,2.66033909362,7,1,1.99231935147,2017_Apr_14_1300,245.000514434,KRITL,001,31031,
,,,,,,,,"('DOUBLE', 'THIRD', 'TIMES', 'x', 'y')",third,3,"(12, 4, 8)",8,8,6,2,TIMES,double,0,UUBxy,,,,,0,0,0,9,,,,,,space,11.6103048147,8,1,8.5332946507,2017_Apr_14_1300,245.000514434,KRITL,001,31031,
,,,,,,,,"('TIMES', 'DOUBLE', 'x', 'y')",double,2,"(4, 8)",8,8,2,2,0,TIMES,0,BUxy,,,,,0,1,1,1,,,,,,space,2.35288007697,8,1,2.96573332575,2017_Apr_14_1300,245.000514434,KRITL,001,31031,
,,,,,,,,"('DOUBLE', 'DECREASE', 'ADD', 'x', 'y')",decrease,3,"(4, 3, 6)",6,6,2,2,ADD,double,0,UUBxy,,,,,0,2,2,8,,,,,,space,6.80602749102,6,1,11.4142517728,2017_Apr_14_1300,245.000514434,KRITL,001,31031,
,,,,,,,,"('SUBTRACT', 'TRIPLE', 'DECREASE', 'x', 'y')",triple,3,"(4, 12, 3)",3,3,9,5,decrease,SUBTRACT,0,BUUxy,,,,,0,3,3,4,,,,,,space,3.44478188702,3,1,3.50846614156,2017_Apr_14_1300,245.000514434,KRITL,001,31031,
,,,,,,,,"('DOUBLE', 'DIVIDE', 'TRIPLE', 'INCREASE', 'x', 'y')",DIVIDE,4,"(5, 15, 3, 6)",6,6,5,4,triple,double,increase,UBUUxy,,,,,0,4,4,12,,,,,,space,9.07807125326,6,1,13.3616221648,2017_Apr_14_1300,245.000514434,KRITL,001,31031,
,,,,,,,,"('THIRD', 'DECREASE', 'TIMES', 'HALF', 'x', 'y')",decrease,4,"(4, 16, 15, 5)",5,5,4,8,TIMES,third,half,UUBUxy,,,,,0,5,5,15,,,,,,space,15.4446971958,4,0,7.18616447374,2017_Apr_14_1300,245.000514434,KRITL,001,31031,
,,,,,,,,"('THIRD', 'TIMES', 'HALF', 'x', 'y')",TIMES,3,"(3, 18, 6)",6,6,6,6,half,third,0,UBUxy,,,,,0,6,6,7,,,,,,space,7.94612557179,6,1,4.67643496403,2017_Apr_14_1300,245.000514434,KRITL,001,31031,
,,,,,,,,"('DECREASE', 'TRIPLE', 'DIVIDE', 'DOUBLE', 'x', 'y')",triple,4,"(6, 2, 6, 5)",5,5,3,3,DIVIDE,decrease,double,UUBUxy,,,,,0,7,7,14,,,,,,space,5.66124969861,5,1,3.66992109374,2017_Apr_14_1300,245.000514434,KRITL,001,31031,
,,,,,,,,"('SUBTRACT', 'DOUBLE', 'TRIPLE', 'DECREASE', 'x', 'y')",double,4,"(2, 6, 12, 8)",8,8,4,3,triple,SUBTRACT,decrease,BUUUxy,,,,,0,8,8,10,,,,,,space,10.244771808,8,1,9.04636806148,2017_Apr_14_1300,245.000514434,KRITL,001,31031,
,,,,,,,,"('INCREASE', 'ADD', 'HALF', 'TRIPLE', 'x', 'y')",ADD,4,"(6, 3, 6, 7)",7,7,3,2,half,increase,triple,UBUUxy,,,,,0,9,9,13,,,,,,space,9.77835447871,7,1,5.90469584501,2017_Apr_14_1300,245.000514434,KRITL,001,31031,
,,,,,,,,"('SUBTRACT', 'TRIPLE', 'DECREASE', 'DOUBLE', 'x', 'y')",triple,4,"(4, 3, 9, 1)",1,1,8,2,decrease,SUBTRACT,double,BUUUxy,,,,,0,10,10,11,,,,,,space,7.0272744039,1,1,4.19537026313,2017_Apr_14_1300,245.000514434,KRITL,001,31031,
,,,,,,,,"('DECREASE', 'TRIPLE', 'HALF', 'SUBTRACT', 'x', 'y')",triple,4,"(4, 2, 6, 5)",5,5,2,6,half,decrease,SUBTRACT,UUUBxy,,,,,0,11,11,16,,,,,,space,8.86756366972,5,1,6.57925220503,2017_Apr_14_1300,245.000514434,KRITL,001,31031,
,,,,,,,,"('TIMES', 'HALF', 'INCREASE', 'x', 'y')",half,3,"(6, 3, 9)",9,9,3,5,increase,TIMES,0,BUUxy,,,,,0,12,12,5,,,,,,space,5.62186830805,9,1,6.13463410095,2017_Apr_14_1300,245.000514434,KRITL,001,31031,
,,,,,,,,"('THIRD', 'DIVIDE', 'DECREASE', 'x', 'y')",DIVIDE,3,"(6, 3, 1)",1,1,2,7,decrease,third,0,UBUxy,,,,,0,13,13,6,,,,,,space,7.66467059165,1,1,3.70169007863,2017_Apr_14_1300,245.000514434,KRITL,001,31031,
,,,,,,,,"('DIVIDE', 'THIRD', 'x', 'y')",third,2,"(3, 1)",1,1,3,9,0,DIVIDE,0,BUxy,,,,,0,14,14,0,,,,,,space,2.69103789021,1,1,1.35329268393,2017_Apr_14_1300,245.000514434,KRITL,001,31031,
,,,,,,,,"('HALF', 'TRIPLE', 'INCREASE', 'SUBTRACT', 'x', 'y')",triple,4,"(1, 2, 6, 3)",3,3,2,3,increase,half,SUBTRACT,UUUBxy,,,,,0,15,15,17,,,,,,space,7.78148210232,3,1,7.20115515945,2017_Apr_14_1300,245.000514434,KRITL,001,31031,
,,,,,,,,"('INCREASE', 'SUBTRACT', 'x', 'y')",SUBTRACT,2,"(3, 4)",4,4,3,6,0,increase,0,UBxy,,,,,0,16,16,2,,,,,,space,2.20020815829,4,1,1.63626755547,2017_Apr_14_1300,245.000514434,KRITL,001,31031,
,,,,,,,,"('THIRD', 'DIVIDE', 'x', 'y')",DIVIDE,2,"(3, 1)",1,1,2,6,0,third,0,UBxy,,,,,0,17,17,3,,,,,,space,1.64619531951,1,1,3.99054013714,2017_Apr_14_1300,245.000514434,KRITL,001,31031,
,,,,,,,,"('INCREASE', 'DIVIDE', 'x', 'y')",DIVIDE,2,"(4, 5)",5,5,2,8,0,increase,0,UBxy,,,,,0,0,0,3,,,,,,space,12.458160291,5,1,2.24426891052,2017_Apr_14_1300,245.000514434,KRITL,001,31031,
,,,,,,,,"('HALF', 'SUBTRACT', 'DECREASE', 'TRIPLE', 'x', 'y')",SUBTRACT,4,"(15, 14, 10, 5)",5,5,4,5,decrease,half,triple,UBUUxy,,,,,0,1,1,12,,,,,,space,5.1237918823,5,1,5.01327691454,2017_Apr_14_1300,245.000514434,KRITL,001,31031,
,,,,,,,,"('TRIPLE', 'INCREASE', 'SUBTRACT', 'x', 'y')",increase,3,"(1, 2, 6)",6,6,2,3,SUBTRACT,triple,0,UUBxy,,,,,0,2,2,9,,,,,,space,7.55408213151,6,1,3.49110305338,2017_Apr_14_1300,245.000514434,KRITL,001,31031,
,,,,,,,,"('TIMES', 'HALF', 'INCREASE', 'THIRD', 'x', 'y')",half,4,"(1, 2, 1, 9)",9,9,9,3,increase,TIMES,third,BUUUxy,,,,,0,3,3,11,,,,,,space,5.07207252923,6,0,9.30067182489,2017_Apr_14_1300,245.000514434,KRITL,001,31031,
,,,,,,,,"('DIVIDE', 'DOUBLE', 'INCREASE', 'TRIPLE', 'x', 'y')",double,4,"(9, 10, 20, 5)",5,5,4,3,increase,DIVIDE,triple,BUUUxy,,,,,0,4,4,10,,,,,,space,10.2228416965,5,1,3.23631039102,2017_Apr_14_1300,245.000514434,KRITL,001,31031,
,,,,,,,,"('TRIPLE', 'INCREASE', 'DIVIDE', 'DOUBLE', 'x', 'y')",increase,4,"(16, 2, 3, 9)",9,9,8,8,DIVIDE,triple,double,UUBUxy,,,,,0,5,5,15,,,,,,space,7.29695381288,9,1,5.81359755108,2017_Apr_14_1300,245.000514434,KRITL,001,31031,
,,,,,,,,"('INCREASE', 'TIMES', 'TRIPLE', 'HALF', 'x', 'y')",TIMES,4,"(1, 3, 6, 7)",7,7,2,2,triple,increase,half,UBUUxy,,,,,0,6,6,13,,,,,,space,7.49329627454,7,1,9.45788416979,2017_Apr_14_1300,245.000514434,KRITL,001,31031,
,,,,,,,,"('HALF', 'TIMES', 'DECREASE', 'x', 'y')",TIMES,3,"(8, 16, 8)",8,8,2,9,decrease,half,0,UBUxy,,,,,0,7,7,6,,,,,,space,4.06478908926,8,1,4.3147704537,2017_Apr_14_1300,245.000514434,KRITL,001,31031,
,,,,,,,,"('SUBTRACT', 'INCREASE', 'HALF', 'x', 'y')",increase,3,"(4, 5, 3)",3,3,2,8,half,SUBTRACT,0,BUUxy,,,,,0,8,8,5,,,,,,space,4.38276415857,3,1,3.33301964941,2017_Apr_14_1300,245.000514434,KRITL,001,31031,
,,,,,,,,"('DIVIDE', 'TRIPLE', 'DECREASE', 'x', 'y')",triple,3,"(6, 18, 9)",9,9,2,7,decrease,DIVIDE,0,BUUxy,,,,,0,9,9,4,,,,,,space,4.89883535655,9,1,5.29761769361,2017_Apr_14_1300,245.000514434,KRITL,001,31031,
,,,,,,,,"('SUBTRACT', 'TRIPLE', 'x', 'y')",triple,2,"(12, 9)",9,9,3,4,0,SUBTRACT,0,BUxy,,,,,0,10,10,1,,,,,,space,3.2678753472,9,1,2.93212948227,2017_Apr_14_1300,245.000514434,KRITL,001,31031,
,,,,,,,,"('INCREASE', 'DIVIDE', 'TRIPLE', 'x', 'y')",DIVIDE,3,"(6, 2, 3)",3,3,3,2,triple,increase,0,UBUxy,,,,,0,11,11,7,,,,,,space,5.66685821334,3,1,7.12738915696,2017_Apr_14_1300,245.000514434,KRITL,001,31031,
,,,,,,,,"('ADD', 'HALF', 'x', 'y')",half,2,"(2, 7)",7,7,5,4,0,ADD,0,BUxy,,,,,0,12,12,0,,,,,,space,3.0886412003,7,1,1.74874301866,2017_Apr_14_1300,245.000514434,KRITL,001,31031,
,,,,,,,,"('THIRD', 'INCREASE', 'HALF', 'TIMES', 'x', 'y')",increase,4,"(28, 14, 15, 5)",5,5,4,7,half,third,TIMES,UUUBxy,,,,,0,13,13,17,,,,,,space,8.21014362152,5,1,14.0076274541,2017_Apr_14_1300,245.000514434,KRITL,001,31031,
,,,,,,,,"('TRIPLE', 'HALF', 'ADD', 'x', 'y')",half,3,"(6, 3, 9)",9,9,3,3,ADD,triple,0,UUBxy,,,,,0,14,14,8,,,,,,space,4.50152881548,9,1,5.63601033229,2017_Apr_14_1300,245.000514434,KRITL,001,31031,
,,,,,,,,"('TRIPLE', 'DOUBLE', 'SUBTRACT', 'INCREASE', 'x', 'y')",double,4,"(5, 1, 2, 6)",6,6,4,4,SUBTRACT,triple,increase,UUBUxy,,,,,0,15,15,14,,,,,,space,3.44373409636,6,1,2.98048743614,2017_Apr_14_1300,245.000514434,KRITL,001,31031,
,,,,,,,,"('DECREASE', 'THIRD', 'DOUBLE', 'ADD', 'x', 'y')",third,4,"(9, 18, 6, 5)",5,5,4,5,double,decrease,ADD,UUUBxy,,,,,0,16,16,16,,,,,,space,5.13706669709,5,1,6.10344885511,2017_Apr_14_1300,245.000514434,KRITL,001,31031,
,,,,,,,,"('DOUBLE', 'DIVIDE', 'x', 'y')",DIVIDE,2,"(1, 2)",2,2,8,8,0,double,0,UBxy,,,,,0,17,17,2,,,,,,space,8.89856973424,2,1,2.7259271495,2017_Apr_14_1300,245.000514434,KRITL,001,31031,
,,,,,,,,"('THIRD', 'DECREASE', 'TIMES', 'x', 'y')",decrease,3,"(25, 24, 8)",8,8,5,5,TIMES,third,0,UUBxy,,,,,0,0,0,8,,,,,,space,7.20895864518,8,1,3.65346266117,2017_Apr_14_1300,245.000514434,KRITL,001,31031,
,,,,,,,,"('THIRD', 'INCREASE', 'HALF', 'DIVIDE', 'x', 'y')",increase,4,"(4, 2, 3, 1)",1,1,2,8,half,third,DIVIDE,UUUBxy,,,,,0,1,1,16,,,,,,space,11.7002909246,1,1,5.57260359879,2017_Apr_14_1300,245.000514434,KRITL,001,31031,
,,,,,,,,"('TIMES', 'INCREASE', 'x', 'y')",increase,2,"(3, 6)",6,6,2,2,0,TIMES,0,BUxy,,,,,0,2,2,1,,,,,,space,2.06438313163,6,1,1.25049651071,2017_Apr_14_1300,245.000514434,KRITL,001,31031,
,,,,,,,,"('TIMES', 'DECREASE', 'HALF', 'x', 'y')",decrease,3,"(4, 3, 9)",9,9,3,8,half,TIMES,0,BUUxy,,,,,0,3,3,4,,,,,,space,8.3583237589,9,1,4.69767004813,2017_Apr_14_1300,245.000514434,KRITL,001,31031,
,,,,,,,,"('TRIPLE', 'DECREASE', 'HALF', 'TIMES', 'x', 'y')",decrease,4,"(6, 3, 2, 6)",6,6,2,3,half,triple,TIMES,UUUBxy,,,,,0,4,4,17,,,,,,space,6.52667964096,6,1,5.20909443099,2017_Apr_14_1300,245.000514434,KRITL,001,31031,
,,,,,,,,"('TIMES', 'INCREASE', 'THIRD', 'DOUBLE', 'x', 'y')",increase,4,"(6, 2, 3, 9)",9,9,3,3,third,TIMES,double,BUUUxy,,,,,0,5,5,11,,,,,,space,12.5987287227,9,1,5.95541885204,2017_Apr_14_1300,245.000514434,KRITL,001,31031,
,,,,,,,,"('THIRD', 'TIMES', 'DECREASE', 'x', 'y')",TIMES,3,"(3, 15, 5)",5,5,5,4,decrease,third,0,UBUxy,,,,,0,6,6,7,,,,,,space,2.83438783162,5,1,3.9237786537,2017_Apr_14_1300,245.000514434,KRITL,001,31031,
,,,,,,,,"('THIRD', 'DOUBLE', 'ADD', 'INCREASE', 'x', 'y')",double,4,"(10, 12, 24, 8)",8,8,2,9,ADD,third,increase,UUBUxy,,,,,0,7,7,14,,,,,,space,11.4948487126,8,1,4.57882909919,2017_Apr_14_1300,245.000514434,KRITL,001,31031,
,,,,,,,,"('TIMES', 'DECREASE', 'x', 'y')",decrease,2,"(2, 4)",4,4,2,3,0,TIMES,0,BUxy,,,,,0,8,8,0,,,,,,space,1.70401453608,4,1,1.36196512895,2017_Apr_14_1300,245.000514434,KRITL,001,31031,
,,,,,,,,"('TRIPLE', 'HALF', 'ADD', 'DECREASE', 'x', 'y')",half,4,"(1, 4, 2, 6)",6,6,3,2,ADD,triple,decrease,UUBUxy,,,,,0,9,9,15,,,,,,space,8.00635708665,6,1,3.65551939656,2017_Apr_14_1300,245.000514434,KRITL,001,31031,
,,,,,,,,"('TRIPLE', 'HALF', 'DIVIDE', 'x', 'y')",half,3,"(2, 1, 3)",3,3,2,4,DIVIDE,triple,0,UUBxy,,,,,0,10,10,9,,,,,,space,2.19277248421,3,1,4.35442831539,2017_Apr_14_1300,245.000514434,KRITL,001,31031,
,,,,,,,,"('THIRD', 'ADD', 'INCREASE', 'x', 'y')",ADD,3,"(8, 15, 5)",5,5,7,7,increase,third,0,UBUxy,,,,,0,11,11,6,,,,,,space,2.78559452321,5,1,4.01771935099,2017_Apr_14_1300,245.000514434,KRITL,001,31031,
,,,,,,,,"('TIMES', 'THIRD', 'HALF', 'x', 'y')",third,3,"(3, 1, 5)",5,5,5,6,half,TIMES,0,BUUxy,,,,,0,12,12,5,,,,,,space,7.47475520929,5,1,5.70138456053,2017_Apr_14_1300,245.000514434,KRITL,001,31031,
,,,,,,,,"('THIRD', 'ADD', 'x', 'y')",ADD,2,"(9, 3)",3,3,5,4,0,third,0,UBxy,,,,,0,13,13,2,,,,,,space,2.08108513878,3,1,1.46108318598,2017_Apr_14_1300,245.000514434,KRITL,001,31031,
,,,,,,,,"('TRIPLE', 'SUBTRACT', 'DOUBLE', 'DECREASE', 'x', 'y')",SUBTRACT,4,"(2, 4, 1, 3)",3,3,3,3,double,triple,decrease,UBUUxy,,,,,0,14,14,13,,,,,,space,11.3379513348,9,0,5.93733658895,2017_Apr_14_1300,245.000514434,KRITL,001,31031,
,,,,,,,,"('SUBTRACT', 'HALF', 'INCREASE', 'TRIPLE', 'x', 'y')",half,4,"(15, 16, 8, 3)",3,3,5,5,increase,SUBTRACT,triple,BUUUxy,,,,,0,15,15,10,,,,,,space,8.58266504889,3,1,8.53410866577,2017_Apr_14_1300,245.000514434,KRITL,001,31031,
,,,,,,,,"('INCREASE', 'DIVIDE', 'TRIPLE', 'DOUBLE', 'x', 'y')",DIVIDE,4,"(6, 18, 3, 4)",4,4,6,3,triple,increase,double,UBUUxy,,,,,0,16,16,12,,,,,,space,7.71287771119,4,1,2.21120996025,2017_Apr_14_1300,245.000514434,KRITL,001,31031,
,,,,,,,,"('THIRD', 'SUBTRACT', 'x', 'y')",SUBTRACT,2,"(3, 1)",1,1,2,5,0,third,0,UBxy,,,,,0,17,17,3,,,,,,space,2.9669018538,1,1,1.17690618982,2017_Apr_14_1300,245.000514434,KRITL,001,31031,
,,,,,,,,"('ADD', 'DECREASE', 'HALF', 'x', 'y')",decrease,3,"(3, 2, 6)",6,6,4,6,half,ADD,0,BUUxy,,,,,0,0,0,4,,,,,,space,9.87690034544,6,1,4.13508415397,2017_Apr_14_1300,245.000514434,KRITL,001,31031,
,,,,,,,,"('DIVIDE', 'DECREASE', 'THIRD', 'DOUBLE', 'x', 'y')",decrease,4,"(12, 4, 3, 1)",1,1,3,6,third,DIVIDE,double,BUUUxy,,,,,0,1,1,10,,,,,,space,10.0027685611,1,1,5.69608366367,2017_Apr_14_1300,245.000514434,KRITL,001,31031,
,,,,,,,,"('INCREASE', 'TIMES', 'x', 'y')",TIMES,2,"(8, 9)",9,9,4,2,0,increase,0,UBxy,,,,,0,2,2,2,,,,,,space,1.65184897959,9,1,4.50000892408,2017_Apr_14_1300,245.000514434,KRITL,001,31031,
,,,,,,,,"('TRIPLE', 'SUBTRACT', 'x', 'y')",SUBTRACT,2,"(2, 6)",6,6,6,8,0,triple,0,UBxy,,,,,0,3,3,3,,,,,,space,4.7907627839,6,1,3.41132642809,2017_Apr_14_1300,245.000514434,KRITL,001,31031,
,,,,,,,,"('DECREASE', 'HALF', 'TRIPLE', 'ADD', 'x', 'y')",half,4,"(4, 12, 6, 5)",5,5,2,2,triple,decrease,ADD,UUUBxy,,,,,0,4,4,16,,,,,,space,7.09260908625,4,0,16.0051101668,2017_Apr_14_1300,245.000514434,KRITL,001,31031,
,,,,,,,,"('TIMES', 'THIRD', 'x', 'y')",third,2,"(1, 4)",4,4,4,3,0,TIMES,0,BUxy,,,,,0,5,5,1,,,,,,space,2.56378766874,4,1,1.86276112089,2017_Apr_14_1300,245.000514434,KRITL,001,31031,
,,,,,,,,"('DECREASE', 'DIVIDE', 'TRIPLE', 'DOUBLE', 'x', 'y')",DIVIDE,4,"(6, 18, 2, 1)",1,1,9,3,triple,decrease,double,UBUUxy,,,,,0,6,6,12,,,,,,space,4.83552311317,1,1,2.6770809966,2017_Apr_14_1300,245.000514434,KRITL,001,31031,
,,,,,,,,"('INCREASE', 'HALF', 'TIMES', 'TRIPLE', 'x', 'y')",half,4,"(6, 12, 6, 7)",7,7,2,2,TIMES,increase,triple,UUBUxy,,,,,0,7,7,14,,,,,,space,5.70120117965,5,0,6.34258765099,2017_Apr_14_1300,245.000514434,KRITL,001,31031,
,,,,,,,,"('INCREASE', 'TRIPLE', 'HALF', 'ADD', 'x', 'y')",triple,4,"(4, 2, 6, 7)",7,7,2,2,half,increase,ADD,UUUBxy,,,,,0,8,8,17,,,,,,space,7.81231003546,7,1,6.61352587858,2017_Apr_14_1300,245.000514434,KRITL,001,31031,
,,,,,,,,"('TRIPLE', 'HALF', 'TIMES', 'x', 'y')",half,3,"(6, 3, 9)",9,9,3,2,TIMES,triple,0,UUBxy,,,,,0,9,9,9,,,,,,space,4.70309063251,9,1,4.90172990449,2017_Apr_14_1300,245.000514434,KRITL,001,31031,
,,,,,,,,"('DECREASE', 'HALF', 'DIVIDE', 'x', 'y')",half,3,"(4, 2, 1)",1,1,2,8,DIVIDE,decrease,0,UUBxy,,,,,0,10,10,8,,,,,,space,2.8886766166,1,1,3.81205456209,2017_Apr_14_1300,245.000514434,KRITL,001,31031,
,,,,,,,,"('THIRD', 'INCREASE', 'SUBTRACT', 'HALF', 'x', 'y')",increase,4,"(4, 2, 3, 1)",1,1,2,8,SUBTRACT,third,half,UUBUxy,,,,,0,11,11,15,,,,,,space,8.6703438496,1,1,6.29414255623,2017_Apr_14_1300,245.000514434,KRITL,001,31031,
,,,,,,,,"('TIMES', 'DECREASE', 'THIRD', 'DOUBLE', 'x', 'y')",decrease,4,"(6, 2, 1, 2)",2,2,2,3,third,TIMES,double,BUUUxy,,,,,0,12,12,11,,,,,,space,10.070206524,2,1,5.76693797004,2017_Apr_14_1300,245.000514434,KRITL,001,31031,
,,,,,,,,"('DOUBLE', 'TIMES', 'THIRD', 'x', 'y')",TIMES,3,"(1, 4, 8)",8,8,4,3,third,double,0,UBUxy,,,,,0,13,13,6,,,,,,space,5.82710369173,8,1,7.91044189539,2017_Apr_14_1300,245.000514434,KRITL,001,31031,
,,,,,,,,"('TRIPLE', 'SUBTRACT', 'INCREASE', 'HALF', 'x', 'y')",SUBTRACT,4,"(3, 4, 1, 3)",3,3,3,6,increase,triple,half,UBUUxy,,,,,0,14,14,13,,,,,,space,11.1226789984,3,1,5.30150333815,2017_Apr_14_1300,245.000514434,KRITL,001,31031,
,,,,,,,,"('SUBTRACT', 'THIRD', 'x', 'y')",third,2,"(3, 1)",1,1,2,9,0,SUBTRACT,0,BUxy,,,,,0,15,15,0,,,,,,space,1.73401270577,1,1,5.25336481139,2017_Apr_14_1300,245.000514434,KRITL,001,31031,
,,,,,,,,"('SUBTRACT', 'DOUBLE', 'DECREASE', 'x', 'y')",double,3,"(8, 16, 7)",7,7,9,9,decrease,SUBTRACT,0,BUUxy,,,,,0,16,16,5,,,,,,space,2.28892530064,7,1,4.29596201639,2017_Apr_14_1300,245.000514434,KRITL,001,31031,
,,,,,,,,"('INCREASE', 'DIVIDE', 'HALF', 'x', 'y')",DIVIDE,3,"(2, 1, 2)",2,2,2,4,half,increase,0,UBUxy,,,,,0,17,17,7,,,,,,space,5.55705262156,2,1,2.43358165576,2017_Apr_14_1300,245.000514434,KRITL,001,31031,
,,,,,,,,"('THIRD', 'TIMES', 'DOUBLE', 'DECREASE', 'x', 'y')",TIMES,4,"(1, 2, 6, 2)",2,2,3,2,double,third,decrease,UBUUxy,,,,,0,0,0,13,,,,,,space,9.12191607806,2,1,14.1646375201,2017_Apr_14_1300,245.000514434,KRITL,001,31031,
,,,,,,,,"('ADD', 'HALF', 'THIRD', 'x', 'y')",half,3,"(2, 1, 9)",9,9,8,6,third,ADD,0,BUUxy,,,,,0,1,1,4,,,,,,space,4.02076228344,9,1,2.78683619364,2017_Apr_14_1300,245.000514434,KRITL,001,31031,
,,,,,,,,"('DOUBLE', 'ADD', 'INCREASE', 'THIRD', 'x', 'y')",ADD,4,"(1, 2, 4, 8)",8,8,2,3,increase,double,third,UBUUxy,,,,,0,2,2,12,,,,,,space,11.3835109806,4,0,9.92720199647,2017_Apr_14_1300,245.000514434,KRITL,001,31031,
,,,,,,,,"('DECREASE', 'DIVIDE', 'x', 'y')",DIVIDE,2,"(2, 1)",1,1,4,8,0,decrease,0,UBxy,,,,,0,3,3,2,,,,,,space,1.85704656717,1,1,2.14822948226,2017_Apr_14_1300,245.000514434,KRITL,001,31031,
,,,,,,,,"('INCREASE', 'ADD', 'x', 'y')",ADD,2,"(5, 6)",6,6,2,3,0,increase,0,UBxy,,,,,0,4,4,3,,,,,,space,1.98754549961,6,1,3.36054567705,2017_Apr_14_1300,245.000514434,KRITL,001,31031,
,,,,,,,,"('THIRD', 'DOUBLE', 'INCREASE', 'TIMES', 'x', 'y')",double,4,"(8, 9, 18, 6)",6,6,4,2,increase,third,TIMES,UUUBxy,,,,,0,5,5,17,,,,,,space,5.58782456053,6,1,10.7726388751,2017_Apr_14_1300,245.000514434,KRITL,001,31031,
,,,,,,,,"('DIVIDE', 'INCREASE', 'x', 'y')",increase,2,"(4, 2)",2,2,2,3,0,DIVIDE,0,BUxy,,,,,0,6,6,0,,,,,,space,3.173042593,2,1,3.47571970866,2017_Apr_14_1300,245.000514434,KRITL,001,31031,
,,,,,,,,"('HALF', 'TRIPLE', 'INCREASE', 'DIVIDE', 'x', 'y')",triple,4,"(3, 4, 12, 6)",6,6,3,9,increase,half,DIVIDE,UUUBxy,,,,,0,7,7,16,,,,,,space,6.45409056565,6,1,5.26988728726,2017_Apr_14_1300,245.000514434,KRITL,001,31031,
,,,,,,,,"('SUBTRACT', 'DECREASE', 'TRIPLE', 'DOUBLE', 'x', 'y')",decrease,4,"(6, 18, 17, 8)",8,8,9,3,triple,SUBTRACT,double,BUUUxy,,,,,0,8,8,11,,,,,,space,9.36111681745,9,0,11.7682310851,2017_Apr_14_1300,245.000514434,KRITL,001,31031,
,,,,,,,,"('THIRD', 'DOUBLE', 'ADD', 'DECREASE', 'x', 'y')",double,4,"(5, 12, 24, 8)",8,8,7,6,ADD,third,decrease,UUBUxy,,,,,0,9,9,14,,,,,,space,7.01325696663,8,1,5.4440623621,2017_Apr_14_1300,245.000514434,KRITL,001,31031,
,,,,,,,,"('SUBTRACT', 'DECREASE', 'x', 'y')",decrease,2,"(5, 3)",3,3,2,6,0,SUBTRACT,0,BUxy,,,,,0,10,10,1,,,,,,space,1.84770009248,3,1,2.74002822803,2017_Apr_14_1300,245.000514434,KRITL,001,31031,
,,,,,,,,"('INCREASE', 'TRIPLE', 'DIVIDE', 'x', 'y')",triple,3,"(2, 6, 7)",7,7,3,6,DIVIDE,increase,0,UUBxy,,,,,0,11,11,8,,,,,,space,10.6585388815,7,1,4.86737363954,2017_Apr_14_1300,245.000514434,KRITL,001,31031,
,,,,,,,,"('ADD', 'DOUBLE', 'DECREASE', 'THIRD', 'x', 'y')",double,4,"(2, 1, 2, 8)",8,8,6,6,decrease,ADD,third,BUUUxy,,,,,0,12,12,10,,,,,,space,7.97928356176,8,1,4.485625075,2017_Apr_14_1300,245.000514434,KRITL,001,31031,
,,,,,,,,"('INCREASE', 'SUBTRACT', 'HALF', 'x', 'y')",SUBTRACT,3,"(4, 2, 3)",3,3,2,8,half,increase,0,UBUxy,,,,,0,13,13,7,,,,,,space,5.21748970496,3,1,4.65933714819,2017_Apr_14_1300,245.000514434,KRITL,001,31031,
,,,,,,,,"('DIVIDE', 'DECREASE', 'TRIPLE', 'x', 'y')",decrease,3,"(9, 8, 4)",4,4,2,3,triple,DIVIDE,0,BUUxy,,,,,0,14,14,5,,,,,,space,5.75963353226,4,1,2.69711395615,2017_Apr_14_1300,245.000514434,KRITL,001,31031,
,,,,,,,,"('THIRD', 'HALF', 'ADD', 'x', 'y')",half,3,"(6, 3, 1)",1,1,3,3,ADD,third,0,UUBxy,,,,,0,15,15,9,,,,,,space,5.07397703049,1,1,1.65688110446,2017_Apr_14_1300,245.000514434,KRITL,001,31031,
,,,,,,,,"('THIRD', 'INCREASE', 'DIVIDE', 'DOUBLE', 'x', 'y')",increase,4,"(18, 2, 3, 1)",1,1,9,9,DIVIDE,third,double,UUBUxy,,,,,0,16,16,15,,,,,,space,8.0008903071,1,1,5.65546130264,2017_Apr_14_1300,245.000514434,KRITL,001,31031,
,,,,,,,,"('HALF', 'ADD', 'TRIPLE', 'x', 'y')",ADD,3,"(9, 12, 6)",6,6,3,3,triple,half,0,UBUxy,,,,,0,17,17,6,,,,,,space,6.03827970551,6,1,2.70515541703,2017_Apr_14_1300,245.000514434,KRITL,001,31031,
,,,,,,,,"('INCREASE', 'HALF', 'THIRD', 'TIMES', 'x', 'y')",half,4,"(12, 4, 2, 3)",3,3,4,3,third,increase,TIMES,UUUBxy,,,,,0,0,0,16,,,,,,space,13.465557819,3,1,6.46896856313,2017_Apr_14_1300,245.000514434,KRITL,001,31031,
,,,,,,,,"('ADD', 'DECREASE', 'x', 'y')",decrease,2,"(2, 7)",7,7,5,3,0,ADD,0,BUxy,,,,,0,1,1,0,,,,,,space,1.66290537582,7,1,2.37438883251,2017_Apr_14_1300,245.000514434,KRITL,001,31031,
,,,,,,,,"('INCREASE', 'ADD', 'HALF', 'x', 'y')",ADD,3,"(1, 4, 5)",5,5,3,2,half,increase,0,UBUxy,,,,,0,2,2,7,,,,,,space,8.29268530829,5,1,2.96323633628,2017_Apr_14_1300,245.000514434,KRITL,001,31031,
,,,,,,,,"('DECREASE', 'TRIPLE', 'SUBTRACT', 'DOUBLE', 'x', 'y')",triple,4,"(6, 3, 9, 8)",8,8,3,3,SUBTRACT,decrease,double,UUBUxy,,,,,0,3,3,15,,,,,,space,14.3713700475,8,1,4.31227381423,2017_Apr_14_1300,245.000514434,KRITL,001,31031,
,,,,,,,,"('DECREASE', 'ADD', 'THIRD', 'HALF', 'x', 'y')",ADD,4,"(3, 1, 7, 6)",6,6,6,6,third,decrease,half,UBUUxy,,,,,0,4,4,12,,,,,,space,11.5049822551,6,1,7.42759343065,2017_Apr_14_1300,245.000514434,KRITL,001,31031,
,,,,,,,,"('DIVIDE', 'DECREASE', 'x', 'y')",decrease,2,"(8, 2)",2,2,4,9,0,DIVIDE,0,BUxy,,,,,0,5,5,1,,,,,,space,8.93614391336,2,1,2.72359114327,2017_Apr_14_1300,245.000514434,KRITL,001,31031,
,,,,,,,,"('HALF', 'INCREASE', 'TIMES', 'x', 'y')",increase,3,"(9, 10, 5)",5,5,3,3,TIMES,half,0,UUBxy,,,,,0,6,6,9,,,,,,space,7.79545719404,5,1,3.15822653906,2017_Apr_14_1300,245.000514434,KRITL,001,31031,
,,,,,,,,"('HALF', 'ADD', 'x', 'y')",ADD,2,"(12, 6)",6,6,8,4,0,half,0,UBxy,,,,,0,7,7,3,,,,,,space,1.40850432258,6,1,4.82416189869,2017_Apr_14_1300,245.000514434,KRITL,001,31031,
,,,,,,,,"('DECREASE', 'SUBTRACT', 'DOUBLE', 'THIRD', 'x', 'y')",SUBTRACT,4,"(3, 6, 4, 3)",3,3,2,9,double,decrease,third,UBUUxy,,,,,0,8,8,13,,,,,,space,7.58705884041,3,1,8.065634951,2017_Apr_14_1300,245.000514434,KRITL,001,31031,
,,,,,,,,"('THIRD', 'HALF', 'INCREASE', 'SUBTRACT', 'x', 'y')",half,4,"(5, 6, 3, 1)",1,1,2,7,increase,third,SUBTRACT,UUUBxy,,,,,0,9,9,17,,,,,,space,8.67653190391,1,1,4.21225495118,2017_Apr_14_1300,245.000514434,KRITL,001,31031,
,,,,,,,,"('DECREASE', 'DOUBLE', 'TIMES', 'THIRD', 'x', 'y')",double,4,"(1, 3, 6, 5)",5,5,3,3,TIMES,decrease,third,UUBUxy,,,,,0,10,10,14,,,,,,space,7.58443166458,5,1,3.98504256082,2017_Apr_14_1300,245.000514434,KRITL,001,31031,
,,,,,,,,"('DOUBLE', 'SUBTRACT', 'INCREASE', 'x', 'y')",SUBTRACT,3,"(4, 1, 2)",2,2,3,3,increase,double,0,UBUxy,,,,,0,11,11,6,,,,,,space,4.48439705317,2,1,2.80724641384,2017_Apr_14_1300,245.000514434,KRITL,001,31031,
,,,,,,,,"('ADD', 'DOUBLE', 'DECREASE', 'x', 'y')",double,3,"(1, 2, 7)",7,7,5,2,decrease,ADD,0,BUUxy,,,,,0,12,12,4,,,,,,space,5.41082878003,8,0,4.3236080815,2017_Apr_14_1300,245.000514434,KRITL,001,31031,
,,,,,,,,"('DECREASE', 'TIMES', 'x', 'y')",TIMES,2,"(9, 8)",8,8,3,3,0,decrease,0,UBxy,,,,,0,13,13,2,,,,,,space,3.28703024841,8,1,2.43584766929,2017_Apr_14_1300,245.000514434,KRITL,001,31031,
,,,,,,,,"('ADD', 'DECREASE', 'THIRD', 'DOUBLE', 'x', 'y')",decrease,4,"(18, 6, 5, 9)",9,9,4,9,third,ADD,double,BUUUxy,,,,,0,14,14,10,,,,,,space,6.83743531362,9,1,6.50042608054,2017_Apr_14_1300,245.000514434,KRITL,001,31031,
,,,,,,,,"('ADD', 'TRIPLE', 'DOUBLE', 'DECREASE', 'x', 'y')",triple,4,"(1, 2, 6, 8)",8,8,2,2,double,ADD,decrease,BUUUxy,,,,,0,15,15,11,,,,,,space,7.84350857988,8,1,2.72769166538,2017_Apr_14_1300,245.000514434,KRITL,001,31031,
,,,,,,,,"('ADD', 'TRIPLE', 'HALF', 'x', 'y')",triple,3,"(2, 6, 8)",8,8,2,4,half,ADD,0,BUUxy,,,,,0,16,16,5,,,,,,space,3.85942981852,8,1,2.59455610806,2017_Apr_14_1300,245.000514434,KRITL,001,31031,
,,,,,,,,"('DOUBLE', 'THIRD', 'ADD', 'x', 'y')",third,3,"(9, 3, 6)",6,6,4,5,ADD,double,0,UUBxy,,,,,0,17,17,8,,,,,,space,3.92206488253,6,1,5.39615131161,2017_Apr_14_1300,245.000514434,KRITL,001,31031,
