operationc,operationb,operationa,correctresponse,valuey,operationd,condition,valuex,Rule,Operatora,Length,Intermediate,CorrectResponse,Result,Y,X,Operatorc,Operatorb,Operatord,Structure,practice_trials.thisRepN,practice_trials.thisTrialN,practice_trials.thisN,practice_trials.thisIndex,block.thisRepN,block.thisTrialN,block.thisN,block.thisIndex,practice_encoding.keys,practice_encoding.rt,practice_execution.keys,practice_execution.corr,practice_execution.rt,encoding.keys,encoding.rt,execution.keys,execution.corr,execution.rt,date,frameRate,expName,session,participant,
increase,DIVIDE,triple,3,3,0,3,2,,,,,,,,,,,,,0,0,0,4,,,,,['space'],[7.233330254210159],None,0,,,,,,,2017_Apr_14_1248,60.0018475261,KRITL,001,31036,
ADD,triple ,half,8,2,0,3,4,,,,,,,,,,,,,0,1,1,3,,,,,['space'],[2.933376041590236],8,1,8.28326493746,,,,,,2017_Apr_14_1248,60.0018475261,KRITL,001,31036,
0,ADD,half,7,5,0,2,4,,,,,,,,,,,,,0,2,2,2,,,,,['space'],[2.2334020998096094],7,1,2.81672360143,,,,,,2017_Apr_14_1248,60.0018475261,KRITL,001,31036,
increase,DIVIDE,double,9,8,triple,4,8,,,,,,,,,,,,,0,3,3,5,,,,,['space'],[6.133317766827531],9,1,7.64992008603,,,,,,2017_Apr_14_1248,60.0018475261,KRITL,001,31036,
0,ADD,decrease,7,5,0,2,3,,,,,,,,,,,,,0,4,4,0,,,,,['space'],[1.7667270512320101],7,1,2.90002799698,,,,,,2017_Apr_14_1248,60.0018475261,KRITL,001,31036,
0,decrease,TIMES,8,3,0,2,3,,,,,,,,,,,,,0,5,5,1,,,,,['space'],[4.116597415530123],8,1,3.06670948898,,,,,,2017_Apr_14_1248,60.0018475261,KRITL,001,31036,
,,,,,,,,"('HALF', 'SUBTRACT', 'DECREASE', 'TRIPLE', 'x', 'y')",SUBTRACT,4,"(15, 14, 10, 5)",5,5,4,5,decrease,half,triple,UBUUxy,,,,,0,0,0,12,,,,,,space,7.59997342853,None,0,,2017_Apr_14_1248,60.0018475261,KRITL,001,31036,
,,,,,,,,"('INCREASE', 'DIVIDE', 'x', 'y')",DIVIDE,2,"(4, 5)",5,5,2,8,0,increase,0,UBxy,,,,,0,1,1,3,,,,,,space,3.96673149872,5,1,1.6167838719,2017_Apr_14_1248,60.0018475261,KRITL,001,31036,
,,,,,,,,"('INCREASE', 'DIVIDE', 'TRIPLE', 'x', 'y')",DIVIDE,3,"(6, 2, 3)",3,3,3,2,triple,increase,0,UBUxy,,,,,0,2,2,7,,,,,,space,4.00002851023,3,1,4.10003558069,2017_Apr_14_1248,60.0018475261,KRITL,001,31036,
,,,,,,,,"('DECREASE', 'THIRD', 'DOUBLE', 'ADD', 'x', 'y')",third,4,"(9, 18, 6, 5)",5,5,4,5,double,decrease,ADD,UUUBxy,,,,,0,3,3,16,,,,,,space,8.26660417242,5,1,6.89998466149,2017_Apr_14_1248,60.0018475261,KRITL,001,31036,
,,,,,,,,"('SUBTRACT', 'INCREASE', 'HALF', 'x', 'y')",increase,3,"(4, 5, 3)",3,3,2,8,half,SUBTRACT,0,BUUxy,,,,,0,4,4,5,,,,,,space,5.7333265479,3,1,2.53340734576,2017_Apr_14_1248,60.0018475261,KRITL,001,31036,
,,,,,,,,"('TRIPLE', 'DOUBLE', 'SUBTRACT', 'INCREASE', 'x', 'y')",double,4,"(5, 1, 2, 6)",6,6,4,4,SUBTRACT,triple,increase,UUBUxy,,,,,0,5,5,14,,,,,,space,7.54995549563,6,1,5.6500318459,2017_Apr_14_1248,60.0018475261,KRITL,001,31036,
,,,,,,,,"('THIRD', 'INCREASE', 'HALF', 'TIMES', 'x', 'y')",increase,4,"(28, 14, 15, 5)",5,5,4,7,half,third,TIMES,UUUBxy,,,,,0,6,6,17,,,,,,space,7.21664696618,5,1,8.93329592806,2017_Apr_14_1248,60.0018475261,KRITL,001,31036,
,,,,,,,,"('TRIPLE', 'HALF', 'ADD', 'x', 'y')",half,3,"(6, 3, 9)",9,9,3,3,ADD,triple,0,UUBxy,,,,,0,7,7,8,,,,,,space,4.06671205477,9,1,3.60006266541,2017_Apr_14_1248,60.0018475261,KRITL,001,31036,
,,,,,,,,"('TRIPLE', 'INCREASE', 'SUBTRACT', 'x', 'y')",increase,3,"(1, 2, 6)",6,6,2,3,SUBTRACT,triple,0,UUBxy,,,,,0,8,8,9,,,,,,space,5.53334234259,6,1,3.099918689,2017_Apr_14_1248,60.0018475261,KRITL,001,31036,
,,,,,,,,"('TRIPLE', 'INCREASE', 'DIVIDE', 'DOUBLE', 'x', 'y')",increase,4,"(16, 2, 3, 9)",9,9,8,8,DIVIDE,triple,double,UUBUxy,,,,,0,9,9,15,,,,,,space,7.18328609201,9,1,7.01661372336,2017_Apr_14_1248,60.0018475261,KRITL,001,31036,
,,,,,,,,"('INCREASE', 'TIMES', 'TRIPLE', 'HALF', 'x', 'y')",TIMES,4,"(1, 3, 6, 7)",7,7,2,2,triple,increase,half,UBUUxy,,,,,0,10,10,13,,,,,,space,4.81666914711,5,0,10.1498941418,2017_Apr_14_1248,60.0018475261,KRITL,001,31036,
,,,,,,,,"('HALF', 'TIMES', 'DECREASE', 'x', 'y')",TIMES,3,"(8, 16, 8)",8,8,2,9,decrease,half,0,UBUxy,,,,,0,11,11,6,,,,,,space,5.3999863721,8,1,3.71671510534,2017_Apr_14_1248,60.0018475261,KRITL,001,31036,
,,,,,,,,"('DOUBLE', 'DIVIDE', 'x', 'y')",DIVIDE,2,"(1, 2)",2,2,8,8,0,double,0,UBxy,,,,,0,12,12,2,,,,,,space,2.80005627905,2,1,1.71673135622,2017_Apr_14_1248,60.0018475261,KRITL,001,31036,
,,,,,,,,"('ADD', 'HALF', 'x', 'y')",half,2,"(2, 7)",7,7,5,4,0,ADD,0,BUxy,,,,,0,13,13,0,,,,,,space,1.43342707469,7,1,1.63342810108,2017_Apr_14_1248,60.0018475261,KRITL,001,31036,
,,,,,,,,"('TIMES', 'HALF', 'INCREASE', 'THIRD', 'x', 'y')",half,4,"(1, 2, 1, 9)",9,9,9,3,increase,TIMES,third,BUUUxy,,,,,0,14,14,11,,,,,,space,7.71662558347,9,1,5.23337045358,2017_Apr_14_1248,60.0018475261,KRITL,001,31036,
,,,,,,,,"('DIVIDE', 'TRIPLE', 'DECREASE', 'x', 'y')",triple,3,"(6, 18, 9)",9,9,2,7,decrease,DIVIDE,0,BUUxy,,,,,0,15,15,4,,,,,,space,2.91671584675,9,1,6.05005385575,2017_Apr_14_1248,60.0018475261,KRITL,001,31036,
,,,,,,,,"('SUBTRACT', 'TRIPLE', 'x', 'y')",triple,2,"(12, 9)",9,9,3,4,0,SUBTRACT,0,BUxy,,,,,0,16,16,1,,,,,,space,6.58330125944,9,1,5.28336529329,2017_Apr_14_1248,60.0018475261,KRITL,001,31036,
,,,,,,,,"('DIVIDE', 'DOUBLE', 'INCREASE', 'TRIPLE', 'x', 'y')",double,4,"(9, 10, 20, 5)",5,5,4,3,increase,DIVIDE,triple,BUUUxy,,,,,0,17,17,10,,,,,,space,7.61660454306,4,0,5.55000054173,2017_Apr_14_1248,60.0018475261,KRITL,001,31036,
,,,,,,,,"('ADD', 'DECREASE', 'x', 'y')",decrease,2,"(2, 7)",7,7,5,3,0,ADD,0,BUxy,,,,,0,0,0,0,,,,,,space,5.1166621336,7,1,1.6334078589,2017_Apr_14_1248,60.0018475261,KRITL,001,31036,
,,,,,,,,"('DECREASE', 'ADD', 'THIRD', 'HALF', 'x', 'y')",ADD,4,"(3, 1, 7, 6)",6,6,6,6,third,decrease,half,UBUUxy,,,,,0,1,1,12,,,,,,space,7.49998260883,6,1,6.99998888106,2017_Apr_14_1248,60.0018475261,KRITL,001,31036,
,,,,,,,,"('INCREASE', 'HALF', 'THIRD', 'TIMES', 'x', 'y')",half,4,"(12, 4, 2, 3)",3,3,4,3,third,increase,TIMES,UUUBxy,,,,,0,2,2,16,,,,,,space,9.31661697349,3,1,4.90003911592,2017_Apr_14_1248,60.0018475261,KRITL,001,31036,
,,,,,,,,"('DOUBLE', 'SUBTRACT', 'INCREASE', 'x', 'y')",SUBTRACT,3,"(4, 1, 2)",2,2,3,3,increase,double,0,UBUxy,,,,,0,3,3,6,,,,,,space,2.38338975492,2,1,3.13342211396,2017_Apr_14_1248,60.0018475261,KRITL,001,31036,
,,,,,,,,"('DIVIDE', 'DECREASE', 'x', 'y')",decrease,2,"(8, 2)",2,2,4,9,0,DIVIDE,0,BUxy,,,,,0,4,4,1,,,,,,space,1.38341455883,2,1,1.65009542357,2017_Apr_14_1248,60.0018475261,KRITL,001,31036,
,,,,,,,,"('HALF', 'ADD', 'x', 'y')",ADD,2,"(12, 6)",6,6,8,4,0,half,0,UBxy,,,,,0,5,5,3,,,,,,space,1.25005972886,6,1,3.7333992488,2017_Apr_14_1248,60.0018475261,KRITL,001,31036,
,,,,,,,,"('INCREASE', 'ADD', 'HALF', 'x', 'y')",ADD,3,"(1, 4, 5)",5,5,3,2,half,increase,0,UBUxy,,,,,0,6,6,7,,,,,,space,2.23340381042,5,1,3.61674623843,2017_Apr_14_1248,60.0018475261,KRITL,001,31036,
,,,,,,,,"('DECREASE', 'DOUBLE', 'TIMES', 'THIRD', 'x', 'y')",double,4,"(1, 3, 6, 5)",5,5,3,3,TIMES,decrease,third,UUBUxy,,,,,0,7,7,14,,,,,,space,6.56664705172,5,1,4.68336164393,2017_Apr_14_1248,60.0018475261,KRITL,001,31036,
,,,,,,,,"('ADD', 'DOUBLE', 'DECREASE', 'x', 'y')",double,3,"(1, 2, 7)",7,7,5,2,decrease,ADD,0,BUUxy,,,,,0,8,8,4,,,,,,space,1.80005000683,7,1,2.56674199051,2017_Apr_14_1248,60.0018475261,KRITL,001,31036,
,,,,,,,,"('ADD', 'TRIPLE', 'DOUBLE', 'DECREASE', 'x', 'y')",triple,4,"(1, 2, 6, 8)",8,8,2,2,double,ADD,decrease,BUUUxy,,,,,0,9,9,11,,,,,,space,1.9167537652,8,1,4.91668591101,2017_Apr_14_1248,60.0018475261,KRITL,001,31036,
,,,,,,,,"('DECREASE', 'SUBTRACT', 'DOUBLE', 'THIRD', 'x', 'y')",SUBTRACT,4,"(3, 6, 4, 3)",3,3,2,9,double,decrease,third,UBUUxy,,,,,0,10,10,13,,,,,,space,5.05000481824,3,1,6.65002927987,2017_Apr_14_1248,60.0018475261,KRITL,001,31036,
,,,,,,,,"('HALF', 'INCREASE', 'TIMES', 'x', 'y')",increase,3,"(9, 10, 5)",5,5,3,3,TIMES,half,0,UUBxy,,,,,0,11,11,9,,,,,,space,3.13335796609,5,1,3.18341894925,2017_Apr_14_1248,60.0018475261,KRITL,001,31036,
,,,,,,,,"('ADD', 'DECREASE', 'THIRD', 'DOUBLE', 'x', 'y')",decrease,4,"(18, 6, 5, 9)",9,9,4,9,third,ADD,double,BUUUxy,,,,,0,12,12,10,,,,,,space,2.08339876414,9,1,4.5500199286,2017_Apr_14_1248,60.0018475261,KRITL,001,31036,
,,,,,,,,"('THIRD', 'HALF', 'INCREASE', 'SUBTRACT', 'x', 'y')",half,4,"(5, 6, 3, 1)",1,1,2,7,increase,third,SUBTRACT,UUUBxy,,,,,0,13,13,17,,,,,,space,6.33331024006,1,1,14.9998109777,2017_Apr_14_1248,60.0018475261,KRITL,001,31036,
,,,,,,,,"('DOUBLE', 'THIRD', 'ADD', 'x', 'y')",third,3,"(9, 3, 6)",6,6,4,5,ADD,double,0,UUBxy,,,,,0,14,14,8,,,,,,space,3.98335862183,6,1,5.30002890923,2017_Apr_14_1248,60.0018475261,KRITL,001,31036,
,,,,,,,,"('DECREASE', 'TIMES', 'x', 'y')",TIMES,2,"(9, 8)",8,8,3,3,0,decrease,0,UBxy,,,,,0,15,15,2,,,,,,space,2.18339300505,8,1,1.58345863549,2017_Apr_14_1248,60.0018475261,KRITL,001,31036,
,,,,,,,,"('DECREASE', 'TRIPLE', 'SUBTRACT', 'DOUBLE', 'x', 'y')",triple,4,"(6, 3, 9, 8)",8,8,3,3,SUBTRACT,decrease,double,UUBUxy,,,,,0,16,16,15,,,,,,space,9.78312609298,2,0,8.56660428643,2017_Apr_14_1248,60.0018475261,KRITL,001,31036,
,,,,,,,,"('ADD', 'TRIPLE', 'HALF', 'x', 'y')",triple,3,"(2, 6, 8)",8,8,2,4,half,ADD,0,BUUxy,,,,,0,17,17,5,,,,,,space,1.93339542847,8,1,2.46669928229,2017_Apr_14_1248,60.0018475261,KRITL,001,31036,
,,,,,,,,"('TIMES', 'INCREASE', 'x', 'y')",increase,2,"(3, 6)",6,6,2,2,0,TIMES,0,BUxy,,,,,0,0,0,1,,,,,,space,2.16672397207,6,1,2.81673814158,2017_Apr_14_1248,60.0018475261,KRITL,001,31036,
,,,,,,,,"('TRIPLE', 'SUBTRACT', 'DOUBLE', 'DECREASE', 'x', 'y')",SUBTRACT,4,"(2, 4, 1, 3)",3,3,3,3,double,triple,decrease,UBUUxy,,,,,0,1,1,13,,,,,,space,5.61667895457,3,1,5.06668668089,2017_Apr_14_1248,60.0018475261,KRITL,001,31036,
,,,,,,,,"('THIRD', 'INCREASE', 'HALF', 'DIVIDE', 'x', 'y')",increase,4,"(4, 2, 3, 1)",1,1,2,8,half,third,DIVIDE,UUUBxy,,,,,0,2,2,16,,,,,,space,8.69994286564,1,1,4.30003689218,2017_Apr_14_1248,60.0018475261,KRITL,001,31036,
,,,,,,,,"('INCREASE', 'DIVIDE', 'TRIPLE', 'DOUBLE', 'x', 'y')",DIVIDE,4,"(6, 18, 3, 4)",4,4,6,3,triple,increase,double,UBUUxy,,,,,0,3,3,12,,,,,,space,6.81663579016,4,1,5.8166451985,2017_Apr_14_1248,60.0018475261,KRITL,001,31036,
,,,,,,,,"('TIMES', 'DECREASE', 'x', 'y')",decrease,2,"(2, 4)",4,4,2,3,0,TIMES,0,BUxy,,,,,0,4,4,0,,,,,,space,2.0501171482,4,1,1.83333133755,2017_Apr_14_1248,60.0018475261,KRITL,001,31036,
,,,,,,,,"('THIRD', 'DOUBLE', 'ADD', 'INCREASE', 'x', 'y')",double,4,"(10, 12, 24, 8)",8,8,2,9,ADD,third,increase,UUBUxy,,,,,0,5,5,14,,,,,,space,6.99991446943,8,1,5.8333615585,2017_Apr_14_1248,60.0018475261,KRITL,001,31036,
,,,,,,,,"('TRIPLE', 'HALF', 'ADD', 'DECREASE', 'x', 'y')",half,4,"(1, 4, 2, 6)",6,6,3,2,ADD,triple,decrease,UUBUxy,,,,,0,6,6,15,,,,,,space,7.24993456923,9,0,14.949841512,2017_Apr_14_1248,60.0018475261,KRITL,001,31036,
,,,,,,,,"('TIMES', 'DECREASE', 'HALF', 'x', 'y')",decrease,3,"(4, 3, 9)",9,9,3,8,half,TIMES,0,BUUxy,,,,,0,7,7,4,,,,,,space,2.7333787214,9,1,3.25010277913,2017_Apr_14_1248,60.0018475261,KRITL,001,31036,
,,,,,,,,"('TRIPLE', 'DECREASE', 'HALF', 'TIMES', 'x', 'y')",decrease,4,"(6, 3, 2, 6)",6,6,2,3,half,triple,TIMES,UUUBxy,,,,,0,8,8,17,,,,,,space,8.43327083904,6,1,5.76668685186,2017_Apr_14_1248,60.0018475261,KRITL,001,31036,
,,,,,,,,"('THIRD', 'ADD', 'x', 'y')",ADD,2,"(9, 3)",3,3,5,4,0,third,0,UBxy,,,,,0,9,9,2,,,,,,space,0.966750030289,3,1,1.73344942671,2017_Apr_14_1248,60.0018475261,KRITL,001,31036,
,,,,,,,,"('TIMES', 'INCREASE', 'THIRD', 'DOUBLE', 'x', 'y')",increase,4,"(6, 2, 3, 9)",9,9,3,3,third,TIMES,double,BUUUxy,,,,,0,10,10,11,,,,,,space,3.63337108085,9,1,6.53331440256,2017_Apr_14_1248,60.0018475261,KRITL,001,31036,
,,,,,,,,"('TRIPLE', 'HALF', 'DIVIDE', 'x', 'y')",half,3,"(2, 1, 3)",3,3,2,4,DIVIDE,triple,0,UUBxy,,,,,0,11,11,9,,,,,,space,1.25008253683,3,1,3.50008210924,2017_Apr_14_1248,60.0018475261,KRITL,001,31036,
,,,,,,,,"('THIRD', 'SUBTRACT', 'x', 'y')",SUBTRACT,2,"(3, 1)",1,1,2,5,0,third,0,UBxy,,,,,0,12,12,3,,,,,,space,1.66675105668,1,1,1.96674147726,2017_Apr_14_1248,60.0018475261,KRITL,001,31036,
,,,,,,,,"('THIRD', 'DECREASE', 'TIMES', 'x', 'y')",decrease,3,"(25, 24, 8)",8,8,5,5,TIMES,third,0,UUBxy,,,,,0,13,13,8,,,,,,space,2.36671673052,8,1,3.4500527723,2017_Apr_14_1248,60.0018475261,KRITL,001,31036,
,,,,,,,,"('THIRD', 'ADD', 'INCREASE', 'x', 'y')",ADD,3,"(8, 15, 5)",5,5,7,7,increase,third,0,UBUxy,,,,,0,14,14,6,,,,,,space,1.55010260805,5,1,3.7000774336,2017_Apr_14_1248,60.0018475261,KRITL,001,31036,
,,,,,,,,"('TIMES', 'THIRD', 'HALF', 'x', 'y')",third,3,"(3, 1, 5)",5,5,5,6,half,TIMES,0,BUUxy,,,,,0,15,15,5,,,,,,space,1.31667684473,5,1,3.98336717498,2017_Apr_14_1248,60.0018475261,KRITL,001,31036,
,,,,,,,,"('THIRD', 'TIMES', 'DECREASE', 'x', 'y')",TIMES,3,"(3, 15, 5)",5,5,5,4,decrease,third,0,UBUxy,,,,,0,16,16,7,,,,,,space,2.11671487731,5,1,4.13337649766,2017_Apr_14_1248,60.0018475261,KRITL,001,31036,
,,,,,,,,"('SUBTRACT', 'HALF', 'INCREASE', 'TRIPLE', 'x', 'y')",half,4,"(15, 16, 8, 3)",3,3,5,5,increase,SUBTRACT,triple,BUUUxy,,,,,0,17,17,10,,,,,,space,3.1167345494,4,0,7.41664200544,2017_Apr_14_1248,60.0018475261,KRITL,001,31036,
,,,,,,,,"('TIMES', 'THIRD', 'DOUBLE', 'x', 'y')",third,3,"(6, 2, 4)",4,4,2,3,double,TIMES,0,BUUxy,,,,,0,0,0,5,,,,,,space,2.13341470133,4,1,3.60003444029,2017_Apr_14_1248,60.0018475261,KRITL,001,31036,
,,,,,,,,"('DOUBLE', 'ADD', 'x', 'y')",ADD,2,"(4, 8)",8,8,2,2,0,double,0,UBxy,,,,,0,1,1,2,,,,,,space,1.18342493649,8,1,1.85005824629,2017_Apr_14_1248,60.0018475261,KRITL,001,31036,
,,,,,,,,"('DECREASE', 'TRIPLE', 'HALF', 'ADD', 'x', 'y')",triple,4,"(6, 3, 9, 8)",8,8,2,4,half,decrease,ADD,UUUBxy,,,,,0,2,2,16,,,,,,space,4.78334248508,8,1,4.41673922504,2017_Apr_14_1248,60.0018475261,KRITL,001,31036,
,,,,,,,,"('DOUBLE', 'TIMES', 'x', 'y')",TIMES,2,"(4, 8)",8,8,2,2,0,double,0,UBxy,,,,,0,3,3,3,,,,,,space,0.983427901519,8,1,1.76675841236,2017_Apr_14_1248,60.0018475261,KRITL,001,31036,
,,,,,,,,"('SUBTRACT', 'INCREASE', 'x', 'y')",increase,2,"(6, 2)",2,2,4,5,0,SUBTRACT,0,BUxy,,,,,0,4,4,1,,,,,,space,1.61661879811,2,1,3.33341430221,2017_Apr_14_1248,60.0018475261,KRITL,001,31036,
,,,,,,,,"('DIVIDE', 'DOUBLE', 'INCREASE', 'THIRD', 'x', 'y')",double,4,"(2, 3, 6, 2)",2,2,3,6,increase,DIVIDE,third,BUUUxy,,,,,0,5,5,10,,,,,,space,3.61670347326,2,1,7.0333243811,2017_Apr_14_1248,60.0018475261,KRITL,001,31036,
,,,,,,,,"('INCREASE', 'ADD', 'TRIPLE', 'x', 'y')",ADD,3,"(6, 8, 9)",9,9,2,2,triple,increase,0,UBUxy,,,,,0,6,6,6,,,,,,space,2.16676331614,9,1,3.11673055787,2017_Apr_14_1248,60.0018475261,KRITL,001,31036,
,,,,,,,,"('INCREASE', 'DIVIDE', 'TRIPLE', 'HALF', 'x', 'y')",DIVIDE,4,"(2, 6, 2, 3)",3,3,3,4,triple,increase,half,UBUUxy,,,,,0,7,7,12,,,,,,space,3.08340047474,3,1,5.66668776423,2017_Apr_14_1248,60.0018475261,KRITL,001,31036,
,,,,,,,,"('DECREASE', 'TRIPLE', 'DIVIDE', 'x', 'y')",triple,3,"(2, 6, 5)",5,5,4,8,DIVIDE,decrease,0,UUBxy,,,,,0,8,8,8,,,,,,space,2.48359069449,5,1,3.2667452977,2017_Apr_14_1248,60.0018475261,KRITL,001,31036,
,,,,,,,,"('DIVIDE', 'TRIPLE', 'HALF', 'x', 'y')",triple,3,"(4, 12, 4)",4,4,3,8,half,DIVIDE,0,BUUxy,,,,,0,9,9,4,,,,,,space,1.33341230638,4,1,5.88337635517,2017_Apr_14_1248,60.0018475261,KRITL,001,31036,
,,,,,,,,"('TRIPLE', 'DOUBLE', 'SUBTRACT', 'DECREASE', 'x', 'y')",double,4,"(4, 1, 2, 6)",6,6,3,5,SUBTRACT,triple,decrease,UUBUxy,,,,,0,10,10,15,,,,,,space,3.93336891395,4,0,12.1165315571,2017_Apr_14_1248,60.0018475261,KRITL,001,31036,
,,,,,,,,"('THIRD', 'TIMES', 'HALF', 'INCREASE', 'x', 'y')",TIMES,4,"(8, 4, 12, 4)",4,4,3,7,half,third,increase,UBUUxy,,,,,0,11,11,13,,,,,,space,7.54998343554,4,1,4.80003119016,2017_Apr_14_1248,60.0018475261,KRITL,001,31036,
,,,,,,,,"('INCREASE', 'SUBTRACT', 'THIRD', 'x', 'y')",SUBTRACT,3,"(3, 1, 2)",2,2,2,9,third,increase,0,UBUxy,,,,,0,12,12,7,,,,,,space,1.58329555742,2,1,5.38338718901,2017_Apr_14_1248,60.0018475261,KRITL,001,31036,
,,,,,,,,"('ADD', 'THIRD', 'x', 'y')",third,2,"(1, 7)",7,7,6,3,0,ADD,0,BUxy,,,,,0,13,13,0,,,,,,space,0.883421971346,7,1,2.08342556364,2017_Apr_14_1248,60.0018475261,KRITL,001,31036,
,,,,,,,,"('TIMES', 'INCREASE', 'HALF', 'TRIPLE', 'x', 'y')",increase,4,"(6, 3, 4, 8)",8,8,2,2,half,TIMES,triple,BUUUxy,,,,,0,14,14,11,,,,,,space,2.71674817719,8,1,4.18339984759,2017_Apr_14_1248,60.0018475261,KRITL,001,31036,
,,,,,,,,"('THIRD', 'INCREASE', 'ADD', 'DOUBLE', 'x', 'y')",increase,4,"(16, 20, 21, 7)",7,7,4,8,ADD,third,double,UUBUxy,,,,,0,15,15,14,,,,,,space,4.00004333549,7,1,7.86664117861,2017_Apr_14_1248,60.0018475261,KRITL,001,31036,
,,,,,,,,"('TRIPLE', 'DECREASE', 'HALF', 'SUBTRACT', 'x', 'y')",decrease,4,"(4, 2, 1, 3)",3,3,5,9,half,triple,SUBTRACT,UUUBxy,,,,,0,16,16,17,,,,,,space,3.90002200985,3,1,3.81672588224,2017_Apr_14_1248,60.0018475261,KRITL,001,31036,
,,,,,,,,"('THIRD', 'INCREASE', 'SUBTRACT', 'x', 'y')",increase,3,"(2, 3, 1)",1,1,6,8,SUBTRACT,third,0,UUBxy,,,,,0,17,17,9,,,,,,space,2.61660511326,1,1,2.91673494852,2017_Apr_14_1248,60.0018475261,KRITL,001,31036,
,,,,,,,,"('DOUBLE', 'ADD', 'INCREASE', 'THIRD', 'x', 'y')",ADD,4,"(1, 2, 4, 8)",8,8,2,3,increase,double,third,UBUUxy,,,,,0,0,0,12,,,,,,space,2.08337310504,8,1,6.31658304634,2017_Apr_14_1248,60.0018475261,KRITL,001,31036,
,,,,,,,,"('DIVIDE', 'INCREASE', 'x', 'y')",increase,2,"(4, 2)",2,2,2,3,0,DIVIDE,0,BUxy,,,,,0,1,1,0,,,,,,space,2.18328865792,2,1,1.75011589378,2017_Apr_14_1248,60.0018475261,KRITL,001,31036,
,,,,,,,,"('THIRD', 'DOUBLE', 'INCREASE', 'TIMES', 'x', 'y')",double,4,"(8, 9, 18, 6)",6,6,4,2,increase,third,TIMES,UUUBxy,,,,,0,2,2,17,,,,,,space,4.70002212387,4,0,5.0669301576,2017_Apr_14_1248,60.0018475261,KRITL,001,31036,
,,,,,,,,"('SUBTRACT', 'DECREASE', 'x', 'y')",decrease,2,"(5, 3)",3,3,2,6,0,SUBTRACT,0,BUxy,,,,,0,3,3,1,,,,,,space,1.21681232506,3,1,3.11673597491,2017_Apr_14_1248,60.0018475261,KRITL,001,31036,
,,,,,,,,"('INCREASE', 'SUBTRACT', 'HALF', 'x', 'y')",SUBTRACT,3,"(4, 2, 3)",3,3,2,8,half,increase,0,UBUxy,,,,,0,4,4,7,,,,,,space,1.66674022283,3,1,3.35005482496,2017_Apr_14_1248,60.0018475261,KRITL,001,31036,
,,,,,,,,"('THIRD', 'HALF', 'ADD', 'x', 'y')",half,3,"(6, 3, 1)",1,1,3,3,ADD,third,0,UUBxy,,,,,0,5,5,9,,,,,,space,2.56675510516,1,1,3.05005271523,2017_Apr_14_1248,60.0018475261,KRITL,001,31036,
,,,,,,,,"('INCREASE', 'ADD', 'x', 'y')",ADD,2,"(5, 6)",6,6,2,3,0,increase,0,UBxy,,,,,0,6,6,3,,,,,,space,1.18341837917,6,1,2.41677058628,2017_Apr_14_1248,60.0018475261,KRITL,001,31036,
,,,,,,,,"('DIVIDE', 'DECREASE', 'TRIPLE', 'x', 'y')",decrease,3,"(9, 8, 4)",4,4,2,3,triple,DIVIDE,0,BUUxy,,,,,0,7,7,5,,,,,,space,3.1000381466,4,1,4.48337344709,2017_Apr_14_1248,60.0018475261,KRITL,001,31036,
,,,,,,,,"('ADD', 'HALF', 'THIRD', 'x', 'y')",half,3,"(2, 1, 9)",9,9,8,6,third,ADD,0,BUUxy,,,,,0,8,8,4,,,,,,space,1.31675125635,9,1,3.73338812985,2017_Apr_14_1248,60.0018475261,KRITL,001,31036,
,,,,,,,,"('THIRD', 'TIMES', 'DOUBLE', 'DECREASE', 'x', 'y')",TIMES,4,"(1, 2, 6, 2)",2,2,3,2,double,third,decrease,UBUUxy,,,,,0,9,9,13,,,,,,space,4.5333454787,2,1,6.49998688535,2017_Apr_14_1248,60.0018475261,KRITL,001,31036,
,,,,,,,,"('THIRD', 'DOUBLE', 'ADD', 'DECREASE', 'x', 'y')",double,4,"(5, 12, 24, 8)",8,8,7,6,ADD,third,decrease,UUBUxy,,,,,0,10,10,14,,,,,,space,4.40001345682,8,1,3.86672670906,2017_Apr_14_1248,60.0018475261,KRITL,001,31036,
,,,,,,,,"('DECREASE', 'DIVIDE', 'x', 'y')",DIVIDE,2,"(2, 1)",1,1,4,8,0,decrease,0,UBxy,,,,,0,11,11,2,,,,,,space,1.18343548523,1,1,1.65010112559,2017_Apr_14_1248,60.0018475261,KRITL,001,31036,
,,,,,,,,"('THIRD', 'INCREASE', 'DIVIDE', 'DOUBLE', 'x', 'y')",increase,4,"(18, 2, 3, 1)",1,1,9,9,DIVIDE,third,double,UUBUxy,,,,,0,12,12,15,,,,,,space,5.48330131639,1,1,3.68337190757,2017_Apr_14_1248,60.0018475261,KRITL,001,31036,
,,,,,,,,"('HALF', 'TRIPLE', 'INCREASE', 'DIVIDE', 'x', 'y')",triple,4,"(3, 4, 12, 6)",6,6,3,9,increase,half,DIVIDE,UUUBxy,,,,,0,13,13,16,,,,,,space,8.31664263259,6,1,7.31665460696,2017_Apr_14_1248,60.0018475261,KRITL,001,31036,
,,,,,,,,"('SUBTRACT', 'DECREASE', 'TRIPLE', 'DOUBLE', 'x', 'y')",decrease,4,"(6, 18, 17, 8)",8,8,9,3,triple,SUBTRACT,double,BUUUxy,,,,,0,14,14,11,,,,,,space,5.78331967699,9,0,16.6997923321,2017_Apr_14_1248,60.0018475261,KRITL,001,31036,
,,,,,,,,"('HALF', 'ADD', 'TRIPLE', 'x', 'y')",ADD,3,"(9, 12, 6)",6,6,3,3,triple,half,0,UBUxy,,,,,0,15,15,6,,,,,,space,2.41672782088,6,1,4.11671487731,2017_Apr_14_1248,60.0018475261,KRITL,001,31036,
,,,,,,,,"('INCREASE', 'TRIPLE', 'DIVIDE', 'x', 'y')",triple,3,"(2, 6, 7)",7,7,3,6,DIVIDE,increase,0,UUBxy,,,,,0,16,16,8,,,,,,space,3.35003315739,7,1,3.9167078638,2017_Apr_14_1248,60.0018475261,KRITL,001,31036,
,,,,,,,,"('ADD', 'DOUBLE', 'DECREASE', 'THIRD', 'x', 'y')",double,4,"(2, 1, 2, 8)",8,8,6,6,decrease,ADD,third,BUUUxy,,,,,0,17,17,10,,,,,,space,4.85000835347,8,1,7.53330641973,2017_Apr_14_1248,60.0018475261,KRITL,001,31036,
,,,,,,,,"('THIRD', 'DIVIDE', 'x', 'y')",DIVIDE,2,"(3, 1)",1,1,2,6,0,third,0,UBxy,,,,,0,0,0,3,,,,,,space,1.61673996632,1,1,2.11675735749,2017_Apr_14_1248,60.0018475261,KRITL,001,31036,
,,,,,,,,"('DECREASE', 'TRIPLE', 'HALF', 'SUBTRACT', 'x', 'y')",triple,4,"(4, 2, 6, 5)",5,5,2,6,half,decrease,SUBTRACT,UUUBxy,,,,,0,1,1,16,,,,,,space,7.26661614666,5,1,8.68350875634,2017_Apr_14_1248,60.0018475261,KRITL,001,31036,
,,,,,,,,"('SUBTRACT', 'TRIPLE', 'DECREASE', 'x', 'y')",triple,3,"(4, 12, 3)",3,3,9,5,decrease,SUBTRACT,0,BUUxy,,,,,0,2,2,4,,,,,,space,5.58333233546,3,1,2.96674290276,2017_Apr_14_1248,60.0018475261,KRITL,001,31036,
,,,,,,,,"('INCREASE', 'SUBTRACT', 'x', 'y')",SUBTRACT,2,"(3, 4)",4,4,3,6,0,increase,0,UBxy,,,,,0,3,3,2,,,,,,space,2.26670794946,4,1,2.13341869274,2017_Apr_14_1248,60.0018475261,KRITL,001,31036,
,,,,,,,,"('DECREASE', 'TRIPLE', 'DIVIDE', 'DOUBLE', 'x', 'y')",triple,4,"(6, 2, 6, 5)",5,5,3,3,DIVIDE,decrease,double,UUBUxy,,,,,0,4,4,14,,,,,,space,8.88327314833,5,1,7.58331579959,2017_Apr_14_1248,60.0018475261,KRITL,001,31036,
,,,,,,,,"('TIMES', 'HALF', 'INCREASE', 'x', 'y')",half,3,"(6, 3, 9)",9,9,3,5,increase,TIMES,0,BUUxy,,,,,0,5,5,5,,,,,,space,1.4000850172,9,1,2.75008510274,2017_Apr_14_1248,60.0018475261,KRITL,001,31036,
,,,,,,,,"('HALF', 'TRIPLE', 'INCREASE', 'SUBTRACT', 'x', 'y')",triple,4,"(1, 2, 6, 3)",3,3,2,3,increase,half,SUBTRACT,UUUBxy,,,,,0,6,6,17,,,,,,space,7.66663445008,6,0,12.1832467481,2017_Apr_14_1248,60.0018475261,KRITL,001,31036,
,,,,,,,,"('DOUBLE', 'DIVIDE', 'TRIPLE', 'INCREASE', 'x', 'y')",DIVIDE,4,"(5, 15, 3, 6)",6,6,5,4,triple,double,increase,UBUUxy,,,,,0,7,7,12,,,,,,space,10.6998770072,6,1,5.85021647753,2017_Apr_14_1248,60.0018475261,KRITL,001,31036,
,,,,,,,,"('DOUBLE', 'THIRD', 'TIMES', 'x', 'y')",third,3,"(12, 4, 8)",8,8,6,2,TIMES,double,0,UUBxy,,,,,0,8,8,9,,,,,,space,2.16671541904,8,1,6.98334322637,2017_Apr_14_1248,60.0018475261,KRITL,001,31036,
,,,,,,,,"('SUBTRACT', 'TRIPLE', 'DECREASE', 'DOUBLE', 'x', 'y')",triple,4,"(4, 3, 9, 1)",1,1,8,2,decrease,SUBTRACT,double,BUUUxy,,,,,0,9,9,11,,,,,,space,7.21665038739,1,1,8.5499209984,2017_Apr_14_1248,60.0018475261,KRITL,001,31036,
,,,,,,,,"('THIRD', 'DIVIDE', 'DECREASE', 'x', 'y')",DIVIDE,3,"(6, 3, 1)",1,1,2,7,decrease,third,0,UBUxy,,,,,0,10,10,6,,,,,,space,2.31670735066,1,1,6.71664069395,2017_Apr_14_1248,60.0018475261,KRITL,001,31036,
,,,,,,,,"('TIMES', 'DOUBLE', 'x', 'y')",double,2,"(4, 8)",8,8,2,2,0,TIMES,0,BUxy,,,,,0,11,11,1,,,,,,space,1.23341464426,8,1,3.26659618958,2017_Apr_14_1248,60.0018475261,KRITL,001,31036,
,,,,,,,,"('INCREASE', 'ADD', 'HALF', 'TRIPLE', 'x', 'y')",ADD,4,"(6, 3, 6, 7)",7,7,3,2,half,increase,triple,UBUUxy,,,,,0,12,12,13,,,,,,space,6.99996550276,4,0,11.7998695376,2017_Apr_14_1248,60.0018475261,KRITL,001,31036,
,,,,,,,,"('DIVIDE', 'THIRD', 'x', 'y')",third,2,"(3, 1)",1,1,3,9,0,DIVIDE,0,BUxy,,,,,0,13,13,0,,,,,,space,1.30008051277,1,1,1.75008282205,2017_Apr_14_1248,60.0018475261,KRITL,001,31036,
,,,,,,,,"('THIRD', 'DECREASE', 'TIMES', 'HALF', 'x', 'y')",decrease,4,"(4, 16, 15, 5)",5,5,4,8,TIMES,third,half,UUBUxy,,,,,0,14,14,15,,,,,,space,8.36660297494,5,1,6.08333917789,2017_Apr_14_1248,60.0018475261,KRITL,001,31036,
,,,,,,,,"('DOUBLE', 'DECREASE', 'ADD', 'x', 'y')",decrease,3,"(4, 3, 6)",6,6,2,2,ADD,double,0,UUBxy,,,,,0,15,15,8,,,,,,space,1.75008025614,6,1,3.25005146081,2017_Apr_14_1248,60.0018475261,KRITL,001,31036,
,,,,,,,,"('THIRD', 'TIMES', 'HALF', 'x', 'y')",TIMES,3,"(3, 18, 6)",6,6,6,6,half,third,0,UBUxy,,,,,0,16,16,7,,,,,,space,1.16662789288,6,1,2.96672408609,2017_Apr_14_1248,60.0018475261,KRITL,001,31036,
,,,,,,,,"('SUBTRACT', 'DOUBLE', 'TRIPLE', 'DECREASE', 'x', 'y')",double,4,"(2, 6, 12, 8)",8,8,4,3,triple,SUBTRACT,decrease,BUUUxy,,,,,0,17,17,10,,,,,,space,8.23329974839,3,0,4.30004972173,2017_Apr_14_1248,60.0018475261,KRITL,001,31036,
,,,,,,,,"('INCREASE', 'DIVIDE', 'THIRD', 'x', 'y')",DIVIDE,3,"(3, 1, 2)",2,2,3,9,third,increase,0,UBUxy,,,,,0,0,0,7,,,,,,space,3.20004835317,2,1,2.83340403845,2017_Apr_14_1248,60.0018475261,KRITL,001,31036,
,,,,,,,,"('DECREASE', 'TIMES', 'DOUBLE', 'THIRD', 'x', 'y')",TIMES,4,"(1, 2, 8, 7)",7,7,4,3,double,decrease,third,UBUUxy,,,,,0,1,1,13,,,,,,space,6.34994876722,9,0,5.21670227579,2017_Apr_14_1248,60.0018475261,KRITL,001,31036,
,,,,,,,,"('ADD', 'THIRD', 'INCREASE', 'HALF', 'x', 'y')",third,4,"(2, 3, 1, 7)",7,7,6,4,increase,ADD,half,BUUUxy,,,,,0,2,2,10,,,,,,space,7.38319759653,7,1,3.7500483247,2017_Apr_14_1248,60.0018475261,KRITL,001,31036,
,,,,,,,,"('ADD', 'DOUBLE', 'x', 'y')",double,2,"(4, 8)",8,8,4,2,0,ADD,0,BUxy,,,,,0,3,3,0,,,,,,space,1.01675712934,8,1,2.06678247498,2017_Apr_14_1248,60.0018475261,KRITL,001,31036,
,,,,,,,,"('DECREASE', 'THIRD', 'TIMES', 'HALF', 'x', 'y')",third,4,"(2, 12, 4, 3)",3,3,6,4,TIMES,decrease,half,UUBUxy,,,,,0,4,4,14,,,,,,space,2.83334730333,4,0,8.69994571665,2017_Apr_14_1248,60.0018475261,KRITL,001,31036,
,,,,,,,,"('DIVIDE', 'INCREASE', 'DOUBLE', 'THIRD', 'x', 'y')",increase,4,"(2, 4, 5, 1)",1,1,5,6,double,DIVIDE,third,BUUUxy,,,,,0,5,5,11,,,,,,space,7.23327351897,1,1,4.63339702494,2017_Apr_14_1248,60.0018475261,KRITL,001,31036,
,,,,,,,,"('DOUBLE', 'SUBTRACT', 'x', 'y')",SUBTRACT,2,"(1, 2)",2,2,7,8,0,double,0,UBxy,,,,,0,6,6,2,,,,,,space,0.733451707521,2,1,3.01673432125,2017_Apr_14_1248,60.0018475261,KRITL,001,31036,
,,,,,,,,"('DOUBLE', 'DECREASE', 'TRIPLE', 'DIVIDE', 'x', 'y')",decrease,4,"(1, 3, 2, 4)",4,4,4,4,triple,double,DIVIDE,UUUBxy,,,,,0,7,7,17,,,,,,space,6.24997049198,4,1,12.1332248237,2017_Apr_14_1248,60.0018475261,KRITL,001,31036,
,,,,,,,,"('DIVIDE', 'DOUBLE', 'THIRD', 'x', 'y')",double,3,"(2, 4, 1)",1,1,4,6,third,DIVIDE,0,BUUxy,,,,,0,8,8,4,,,,,,space,1.48341165076,1,1,3.76659618958,2017_Apr_14_1248,60.0018475261,KRITL,001,31036,
,,,,,,,,"('DECREASE', 'HALF', 'TRIPLE', 'DIVIDE', 'x', 'y')",half,4,"(4, 12, 6, 5)",5,5,2,8,triple,decrease,DIVIDE,UUUBxy,,,,,0,9,9,16,,,,,,space,4.6500107483,4,0,7.29998528876,2017_Apr_14_1248,60.0018475261,KRITL,001,31036,
,,,,,,,,"('DOUBLE', 'DECREASE', 'SUBTRACT', 'x', 'y')",decrease,3,"(5, 4, 8)",8,8,2,7,SUBTRACT,double,0,UUBxy,,,,,0,10,10,8,,,,,,space,2.81671333779,8,1,2.78340178623,2017_Apr_14_1248,60.0018475261,KRITL,001,31036,
,,,,,,,,"('DOUBLE', 'TRIPLE', 'DIVIDE', 'DECREASE', 'x', 'y')",triple,4,"(8, 1, 3, 6)",6,6,8,9,DIVIDE,double,decrease,UUBUxy,,,,,0,11,11,15,,,,,,space,7.48328706133,4,0,16.3497999442,2017_Apr_14_1248,60.0018475261,KRITL,001,31036,
,,,,,,,,"('HALF', 'SUBTRACT', 'TRIPLE', 'x', 'y')",SUBTRACT,3,"(9, 2, 1)",1,1,7,3,triple,half,0,UBUxy,,,,,0,12,12,6,,,,,,space,2.36671815603,4,0,4.98335406021,2017_Apr_14_1248,60.0018475261,KRITL,001,31036,
,,,,,,,,"('SUBTRACT', 'HALF', 'TRIPLE', 'x', 'y')",half,3,"(12, 6, 2)",2,2,4,4,triple,SUBTRACT,0,BUUxy,,,,,0,13,13,5,,,,,,space,3.00005046302,2,1,3.08339363232,2017_Apr_14_1248,60.0018475261,KRITL,001,31036,
,,,,,,,,"('DECREASE', 'ADD', 'DOUBLE', 'THIRD', 'x', 'y')",ADD,4,"(3, 6, 10, 9)",9,9,4,9,double,decrease ,third,UBUUxy,,,,,0,14,14,12,,,,,,space,3.51670296013,9,1,6.03345666837,2017_Apr_14_1248,60.0018475261,KRITL,001,31036,
,,,,,,,,"('DOUBLE', 'TRIPLE', 'SUBTRACT', 'x', 'y')",triple,3,"(1, 3, 6)",6,6,3,4,SUBTRACT,double,0,UUBxy,,,,,0,15,15,9,,,,,,space,2.43339941988,6,1,3.38339973346,2017_Apr_14_1248,60.0018475261,KRITL,001,31036,
,,,,,,,,"('DIVIDE', 'DOUBLE', 'x', 'y')",double,2,"(12, 2)",2,2,6,6,0,DIVIDE,0,BUxy,,,,,0,16,16,1,,,,,,space,0.966775974608,2,1,2.05008749769,2017_Apr_14_1248,60.0018475261,KRITL,001,31036,
,,,,,,,,"('HALF', 'TIMES', 'x', 'y')",TIMES,2,"(16, 8)",8,8,4,4,0,half,0,UBxy,,,,,0,17,17,3,,,,,,space,0.883457609103,8,1,3.20008028462,2017_Apr_14_1248,60.0018475261,KRITL,001,31036,
,,,,,,,,"('TRIPLE', 'HALF', 'TIMES', 'x', 'y')",half,3,"(6, 3, 9)",9,9,3,2,TIMES,triple,0,UUBxy,,,,,0,0,0,9,,,,,,space,1.1501031213,9,1,3.73326753185,2017_Apr_14_1248,60.0018475261,KRITL,001,31036,
,,,,,,,,"('INCREASE', 'HALF', 'TIMES', 'TRIPLE', 'x', 'y')",half,4,"(6, 12, 6, 7)",7,7,2,2,TIMES,increase,triple,UUBUxy,,,,,0,1,1,14,,,,,,space,2.05008122546,7,1,4.51671493438,2017_Apr_14_1248,60.0018475261,KRITL,001,31036,
,,,,,,,,"('INCREASE', 'DIVIDE', 'HALF', 'x', 'y')",DIVIDE,3,"(2, 1, 2)",2,2,2,4,half,increase,0,UBUxy,,,,,0,2,2,7,,,,,,space,1.21675815573,2,1,2.73361221969,2017_Apr_14_1248,60.0018475261,KRITL,001,31036,
,,,,,,,,"('DIVIDE', 'DECREASE', 'THIRD', 'DOUBLE', 'x', 'y')",decrease,4,"(12, 4, 3, 1)",1,1,3,6,third,DIVIDE,double,BUUUxy,,,,,0,3,3,10,,,,,,space,1.7000554807,2,0,9.33330539346,2017_Apr_14_1248,60.0018475261,KRITL,001,31036,
,,,,,,,,"('DECREASE', 'HALF', 'DIVIDE', 'x', 'y')",half,3,"(4, 2, 1)",1,1,2,8,DIVIDE,decrease,0,UUBxy,,,,,0,4,4,8,,,,,,space,1.7334468608,3,0,8.7166059115,2017_Apr_14_1248,60.0018475261,KRITL,001,31036,
,,,,,,,,"('TIMES', 'DECREASE', 'THIRD', 'DOUBLE', 'x', 'y')",decrease,4,"(6, 2, 1, 2)",2,2,2,3,third,TIMES,double,BUUUxy,,,,,0,5,5,11,,,,,,space,4.79998129734,4,0,9.3165724976,2017_Apr_14_1248,60.0018475261,KRITL,001,31036,
,,,,,,,,"('TRIPLE', 'SUBTRACT', 'x', 'y')",SUBTRACT,2,"(2, 6)",6,6,6,8,0,triple,0,UBxy,,,,,0,6,6,3,,,,,,space,1.08347403095,6,1,2.50006956479,2017_Apr_14_1248,60.0018475261,KRITL,001,31036,
,,,,,,,,"('THIRD', 'INCREASE', 'SUBTRACT', 'HALF', 'x', 'y')",increase,4,"(4, 2, 3, 1)",1,1,2,8,SUBTRACT,third,half,UUBUxy,,,,,0,7,7,15,,,,,,space,7.98329532926,1,1,3.8500608122,2017_Apr_14_1248,60.0018475261,KRITL,001,31036,
,,,,,,,,"('INCREASE', 'TRIPLE', 'HALF', 'ADD', 'x', 'y')",triple,4,"(4, 2, 6, 7)",7,7,2,2,half,increase,ADD,UUUBxy,,,,,0,8,8,17,,,,,,space,2.18336677575,7,1,4.35005653568,2017_Apr_14_1248,60.0018475261,KRITL,001,31036,
,,,,,,,,"('DECREASE', 'HALF', 'TRIPLE', 'ADD', 'x', 'y')",half,4,"(4, 12, 6, 5)",5,5,2,2,triple,decrease,ADD,UUUBxy,,,,,0,9,9,16,,,,,,space,2.03339394589,5,1,3.95003595122,2017_Apr_14_1248,60.0018475261,KRITL,001,31036,
,,,,,,,,"('TRIPLE', 'SUBTRACT', 'INCREASE', 'HALF', 'x', 'y')",SUBTRACT,4,"(3, 4, 1, 3)",3,3,3,6,increase,triple,half,UBUUxy,,,,,0,10,10,13,,,,,,space,2.05007894465,3,1,3.46672152018,2017_Apr_14_1248,60.0018475261,KRITL,001,31036,
,,,,,,,,"('INCREASE', 'TIMES', 'x', 'y')",TIMES,2,"(8, 9)",9,9,4,2,0,increase,0,UBxy,,,,,0,11,11,2,,,,,,space,0.71675159852,9,1,6.53332580661,2017_Apr_14_1248,60.0018475261,KRITL,001,31036,
,,,,,,,,"('SUBTRACT', 'DOUBLE', 'DECREASE', 'x', 'y')",double,3,"(8, 16, 7)",7,7,9,9,decrease,SUBTRACT,0,BUUxy,,,,,0,12,12,5,,,,,,space,1.23341236345,9,0,6.4720666043,2017_Apr_14_1248,60.0018475261,KRITL,001,31036,
,,,,,,,,"('TIMES', 'THIRD', 'x', 'y')",third,2,"(1, 4)",4,4,4,3,0,TIMES,0,BUxy,,,,,0,13,13,1,,,,,,space,1.11663732969,4,1,2.13341840764,2017_Apr_14_1248,60.0018475261,KRITL,001,31036,
,,,,,,,,"('SUBTRACT', 'THIRD', 'x', 'y')",third,2,"(3, 1)",1,1,2,9,0,SUBTRACT,0,BUxy,,,,,0,14,14,0,,,,,,space,0.733434601454,1,1,3.83338864299,2017_Apr_14_1248,60.0018475261,KRITL,001,31036,
,,,,,,,,"('DECREASE', 'DIVIDE', 'TRIPLE', 'DOUBLE', 'x', 'y')",DIVIDE,4,"(6, 18, 2, 1)",1,1,9,3,triple,decrease,double,UBUUxy,,,,,0,15,15,12,,,,,,space,1.38341712463,3,0,5.7000298216,2017_Apr_14_1248,60.0018475261,KRITL,001,31036,
,,,,,,,,"('DOUBLE', 'TIMES', 'THIRD', 'x', 'y')",TIMES,3,"(1, 4, 8)",8,8,4,3,third,double,0,UBUxy,,,,,0,16,16,6,,,,,,space,1.83342741686,8,1,4.20005063398,2017_Apr_14_1248,60.0018475261,KRITL,001,31036,
,,,,,,,,"('ADD', 'DECREASE', 'HALF', 'x', 'y')",decrease,3,"(3, 2, 6)",6,6,4,6,half,ADD,0,BUUxy,,,,,0,17,17,4,,,,,,space,1.86672642396,6,1,2.8667364025,2017_Apr_14_1248,60.0018475261,KRITL,001,31036,
