operationc,operationb,operationa,correctresponse,valuey,operationd,condition,valuex,Rule,Operatora,Length,Intermediate,CorrectResponse,Result,Y,X,Operatorc,Operatorb,Operatord,Structure,practice_trials.thisRepN,practice_trials.thisTrialN,practice_trials.thisN,practice_trials.thisIndex,block.thisRepN,block.thisTrialN,block.thisN,block.thisIndex,practice_encoding.keys,practice_encoding.rt,practice_execution.keys,practice_execution.corr,practice_execution.rt,encoding.keys,encoding.rt,execution.keys,execution.corr,execution.rt,date,frameRate,expName,session,participant,
increase,DIVIDE,double,9,8,triple,4,8,,,,,,,,,,,,,0,0,0,5,,,,,['space'],[13.865629771520616],None,0,,,,,,,2017_Apr_14_1719,60.006068979,KRITL,001,31040,
0,ADD,decrease,7,5,0,2,3,,,,,,,,,,,,,0,1,1,0,,,,,['space'],[2.8165690910245758],7,1,2.06666944304,,,,,,2017_Apr_14_1719,60.006068979,KRITL,001,31040,
ADD,triple ,half,8,2,0,3,4,,,,,,,,,,,,,0,2,2,3,,,,,['space'],[3.5331508157250937],8,1,3.01670165718,,,,,,2017_Apr_14_1719,60.006068979,KRITL,001,31040,
increase,DIVIDE,triple,3,3,0,3,2,,,,,,,,,,,,,0,3,3,4,,,,,['space'],[2.0499387388990726],3,1,5.56637844842,,,,,,2017_Apr_14_1719,60.006068979,KRITL,001,31040,
0,decrease,TIMES,8,3,0,2,3,,,,,,,,,,,,,0,4,4,1,,,,,['space'],[2.416610876651248],8,1,1.43337867691,,,,,,2017_Apr_14_1719,60.006068979,KRITL,001,31040,
0,ADD,half,7,5,0,2,4,,,,,,,,,,,,,0,5,5,2,,,,,['space'],[1.1167114211712033],7,1,1.26673236646,,,,,,2017_Apr_14_1719,60.006068979,KRITL,001,31040,
,,,,,,,,"('DECREASE', 'THIRD', 'DOUBLE', 'ADD', 'x', 'y')",third,4,"(9, 18, 6, 5)",5,5,4,5,double,decrease,ADD,UUUBxy,,,,,0,0,0,16,,,,,,space,5.8996675697,5,1,5.94973229544,2017_Apr_14_1719,60.006068979,KRITL,001,31040,
,,,,,,,,"('ADD', 'HALF', 'x', 'y')",half,2,"(2, 7)",7,7,5,4,0,ADD,0,BUxy,,,,,0,1,1,0,,,,,,space,2.71656667627,7,1,2.28334968246,2017_Apr_14_1719,60.006068979,KRITL,001,31040,
,,,,,,,,"('SUBTRACT', 'TRIPLE', 'x', 'y')",triple,2,"(12, 9)",9,9,3,4,0,SUBTRACT,0,BUxy,,,,,0,2,2,1,,,,,,space,3.84982122114,9,1,2.10003146171,2017_Apr_14_1719,60.006068979,KRITL,001,31040,
,,,,,,,,"('TRIPLE', 'INCREASE', 'SUBTRACT', 'x', 'y')",increase,3,"(1, 2, 6)",6,6,2,3,SUBTRACT,triple,0,UUBxy,,,,,0,3,3,9,,,,,,space,5.2164072679,6,1,2.78327496524,2017_Apr_14_1719,60.006068979,KRITL,001,31040,
,,,,,,,,"('HALF', 'SUBTRACT', 'DECREASE', 'TRIPLE', 'x', 'y')",SUBTRACT,4,"(15, 14, 10, 5)",5,5,4,5,decrease,half,triple,UBUUxy,,,,,0,4,4,12,,,,,,space,9.01605142505,5,1,6.11634500939,2017_Apr_14_1719,60.006068979,KRITL,001,31040,
,,,,,,,,"('INCREASE', 'DIVIDE', 'TRIPLE', 'x', 'y')",DIVIDE,3,"(6, 2, 3)",3,3,3,2,triple,increase,0,UBUxy,,,,,0,5,5,7,,,,,,space,5.0830743312,4,0,10.7992941937,2017_Apr_14_1719,60.006068979,KRITL,001,31040,
,,,,,,,,"('SUBTRACT', 'INCREASE', 'HALF', 'x', 'y')",increase,3,"(4, 5, 3)",3,3,2,8,half,SUBTRACT,0,BUUxy,,,,,0,6,6,5,,,,,,space,10.9825714687,3,1,3.58322814014,2017_Apr_14_1719,60.006068979,KRITL,001,31040,
,,,,,,,,"('DIVIDE', 'TRIPLE', 'DECREASE', 'x', 'y')",triple,3,"(6, 18, 9)",9,9,2,7,decrease,DIVIDE,0,BUUxy,,,,,0,7,7,4,,,,,,space,5.36636871943,9,1,6.29966113038,2017_Apr_14_1719,60.006068979,KRITL,001,31040,
,,,,,,,,"('TRIPLE', 'DOUBLE', 'SUBTRACT', 'INCREASE', 'x', 'y')",double,4,"(5, 1, 2, 6)",6,6,4,4,SUBTRACT,triple,increase,UUBUxy,,,,,0,8,8,14,,,,,,space,6.26625046675,6,1,4.26654513602,2017_Apr_14_1719,60.006068979,KRITL,001,31040,
,,,,,,,,"('HALF', 'TIMES', 'DECREASE', 'x', 'y')",TIMES,3,"(8, 16, 8)",8,8,2,9,decrease,half,0,UBUxy,,,,,0,9,9,6,,,,,,space,2.69990526489,8,1,4.31651642153,2017_Apr_14_1719,60.006068979,KRITL,001,31040,
,,,,,,,,"('TRIPLE', 'HALF', 'ADD', 'x', 'y')",half,3,"(6, 3, 9)",9,9,3,3,ADD,triple,0,UUBxy,,,,,0,10,10,8,,,,,,space,2.56663567157,9,1,11.1492527755,2017_Apr_14_1719,60.006068979,KRITL,001,31040,
,,,,,,,,"('INCREASE', 'DIVIDE', 'x', 'y')",DIVIDE,2,"(4, 5)",5,5,2,8,0,increase,0,UBxy,,,,,0,11,11,3,,,,,,space,4.73308635244,5,1,2.16668025692,2017_Apr_14_1719,60.006068979,KRITL,001,31040,
,,,,,,,,"('INCREASE', 'TIMES', 'TRIPLE', 'HALF', 'x', 'y')",TIMES,4,"(1, 3, 6, 7)",7,7,2,2,triple,increase,half,UBUUxy,,,,,0,12,12,13,,,,,,space,4.89981525429,7,1,7.33291186063,2017_Apr_14_1719,60.006068979,KRITL,001,31040,
,,,,,,,,"('THIRD', 'INCREASE', 'HALF', 'TIMES', 'x', 'y')",increase,4,"(28, 14, 15, 5)",5,5,4,7,half,third,TIMES,UUUBxy,,,,,0,13,13,17,,,,,,space,5.76635283109,5,1,5.96639825634,2017_Apr_14_1719,60.006068979,KRITL,001,31040,
,,,,,,,,"('DIVIDE', 'DOUBLE', 'INCREASE', 'TRIPLE', 'x', 'y')",double,4,"(9, 10, 20, 5)",5,5,4,3,increase,DIVIDE,triple,BUUUxy,,,,,0,14,14,10,,,,,,space,8.94940787929,5,1,5.61639207948,2017_Apr_14_1719,60.006068979,KRITL,001,31040,
,,,,,,,,"('TIMES', 'HALF', 'INCREASE', 'THIRD', 'x', 'y')",half,4,"(1, 2, 1, 9)",9,9,9,3,increase,TIMES,third,BUUUxy,,,,,0,15,15,11,,,,,,space,9.36604745296,9,1,3.88320528754,2017_Apr_14_1719,60.006068979,KRITL,001,31040,
,,,,,,,,"('TRIPLE', 'INCREASE', 'DIVIDE', 'DOUBLE', 'x', 'y')",increase,4,"(16, 2, 3, 9)",9,9,8,8,DIVIDE,triple,double,UUBUxy,,,,,0,16,16,15,,,,,,space,9.03274328323,9,1,6.63297964857,2017_Apr_14_1719,60.006068979,KRITL,001,31040,
,,,,,,,,"('DOUBLE', 'DIVIDE', 'x', 'y')",DIVIDE,2,"(1, 2)",2,2,8,8,0,double,0,UBxy,,,,,0,17,17,2,,,,,,space,1.5167081315,2,1,1.8667006598,2017_Apr_14_1719,60.006068979,KRITL,001,31040,
,,,,,,,,"('TRIPLE', 'DOUBLE', 'SUBTRACT', 'DECREASE', 'x', 'y')",double,4,"(4, 1, 2, 6)",6,6,3,5,SUBTRACT,triple,decrease,UUBUxy,,,,,0,0,0,15,,,,,,space,5.11639260445,6,1,5.79977994296,2017_Apr_14_1719,60.006068979,KRITL,001,31040,
,,,,,,,,"('THIRD', 'TIMES', 'HALF', 'INCREASE', 'x', 'y')",TIMES,4,"(8, 4, 12, 4)",4,4,3,7,half,third,increase,UBUUxy,,,,,0,1,1,13,,,,,,space,2.98318810432,4,1,11.3659183164,2017_Apr_14_1719,60.006068979,KRITL,001,31040,
,,,,,,,,"('TIMES', 'INCREASE', 'HALF', 'TRIPLE', 'x', 'y')",increase,4,"(6, 3, 4, 8)",8,8,2,2,half,TIMES,triple,BUUUxy,,,,,0,2,2,11,,,,,,space,10.9492430465,8,1,11.1325983634,2017_Apr_14_1719,60.006068979,KRITL,001,31040,
,,,,,,,,"('INCREASE', 'DIVIDE', 'TRIPLE', 'HALF', 'x', 'y')",DIVIDE,4,"(2, 6, 2, 3)",3,3,3,4,triple,increase,half,UBUUxy,,,,,0,3,3,12,,,,,,space,7.73264749825,3,1,6.08303478532,2017_Apr_14_1719,60.006068979,KRITL,001,31040,
,,,,,,,,"('THIRD', 'INCREASE', 'ADD', 'DOUBLE', 'x', 'y')",increase,4,"(16, 20, 21, 7)",7,7,4,8,ADD,third,double,UUBUxy,,,,,0,4,4,14,,,,,,space,3.76650541514,7,1,17.1154214558,2017_Apr_14_1719,60.006068979,KRITL,001,31040,
,,,,,,,,"('TRIPLE', 'DECREASE', 'HALF', 'SUBTRACT', 'x', 'y')",decrease,4,"(4, 2, 1, 3)",3,3,5,9,half,triple,SUBTRACT,UUUBxy,,,,,0,5,5,17,,,,,,space,8.94951776782,9,0,4.89969906642,2017_Apr_14_1719,60.006068979,KRITL,001,31040,
,,,,,,,,"('DECREASE', 'TRIPLE', 'DIVIDE', 'x', 'y')",triple,3,"(2, 6, 5)",5,5,4,8,DIVIDE,decrease,0,UUBxy,,,,,0,6,6,8,,,,,,space,2.20013256618,5,1,3.98291653267,2017_Apr_14_1719,60.006068979,KRITL,001,31040,
,,,,,,,,"('DECREASE', 'TRIPLE', 'HALF', 'ADD', 'x', 'y')",triple,4,"(6, 3, 9, 8)",8,8,2,4,half,decrease,ADD,UUUBxy,,,,,0,7,7,16,,,,,,space,5.98281434333,8,1,5.79971274998,2017_Apr_14_1719,60.006068979,KRITL,001,31040,
,,,,,,,,"('THIRD', 'INCREASE', 'SUBTRACT', 'x', 'y')",increase,3,"(2, 3, 1)",1,1,6,8,SUBTRACT,third,0,UUBxy,,,,,0,8,8,9,,,,,,space,4.14983196504,1,1,2.499990376,2017_Apr_14_1719,60.006068979,KRITL,001,31040,
,,,,,,,,"('INCREASE', 'SUBTRACT', 'THIRD', 'x', 'y')",SUBTRACT,3,"(3, 1, 2)",2,2,2,9,third,increase,0,UBUxy,,,,,0,9,9,7,,,,,,space,2.18330562205,2,1,3.64988568443,2017_Apr_14_1719,60.006068979,KRITL,001,31040,
,,,,,,,,"('TIMES', 'THIRD', 'DOUBLE', 'x', 'y')",third,3,"(6, 2, 4)",4,4,2,3,double,TIMES,0,BUUxy,,,,,0,10,10,5,,,,,,space,6.49963446314,4,1,8.48280961881,2017_Apr_14_1719,60.006068979,KRITL,001,31040,
,,,,,,,,"('INCREASE', 'ADD', 'TRIPLE', 'x', 'y')",ADD,3,"(6, 8, 9)",9,9,2,2,triple,increase,0,UBUxy,,,,,0,11,11,6,,,,,,space,4.74973761488,9,1,3.18325942688,2017_Apr_14_1719,60.006068979,KRITL,001,31040,
,,,,,,,,"('DIVIDE', 'DOUBLE', 'INCREASE', 'THIRD', 'x', 'y')",double,4,"(2, 3, 6, 2)",2,2,3,6,increase,DIVIDE,third,BUUUxy,,,,,0,12,12,10,,,,,,space,9.4327042973,2,1,9.34943398656,2017_Apr_14_1719,60.006068979,KRITL,001,31040,
,,,,,,,,"('DOUBLE', 'TIMES', 'x', 'y')",TIMES,2,"(4, 8)",8,8,2,2,0,double,0,UBxy,,,,,0,13,13,3,,,,,,space,1.43336502835,8,1,3.43323379208,2017_Apr_14_1719,60.006068979,KRITL,001,31040,
,,,,,,,,"('ADD', 'THIRD', 'x', 'y')",third,2,"(1, 7)",7,7,6,3,0,ADD,0,BUxy,,,,,0,14,14,0,,,,,,space,2.04998493407,7,1,4.71646693666,2017_Apr_14_1719,60.006068979,KRITL,001,31040,
,,,,,,,,"('SUBTRACT', 'INCREASE', 'x', 'y')",increase,2,"(6, 2)",2,2,4,5,0,SUBTRACT,0,BUxy,,,,,0,15,15,1,,,,,,space,1.53342063754,2,1,2.29997644748,2017_Apr_14_1719,60.006068979,KRITL,001,31040,
,,,,,,,,"('DIVIDE', 'TRIPLE', 'HALF', 'x', 'y')",triple,3,"(4, 12, 4)",4,4,3,8,half,DIVIDE,0,BUUxy,,,,,0,16,16,4,,,,,,space,3.16655427005,9,0,5.26647024383,2017_Apr_14_1719,60.006068979,KRITL,001,31040,
,,,,,,,,"('DOUBLE', 'ADD', 'x', 'y')",ADD,2,"(4, 8)",8,8,2,2,0,double,0,UBxy,,,,,0,17,17,2,,,,,,space,1.35002787461,8,1,3.08327661009,2017_Apr_14_1719,60.006068979,KRITL,001,31040,
,,,,,,,,"('ADD', 'DECREASE', 'x', 'y')",decrease,2,"(2, 7)",7,7,5,3,0,ADD,0,BUxy,,,,,0,0,0,0,,,,,,space,1.28332658485,7,1,2.14999854765,2017_Apr_14_1719,60.006068979,KRITL,001,31040,
,,,,,,,,"('ADD', 'TRIPLE', 'DOUBLE', 'DECREASE', 'x', 'y')",triple,4,"(1, 2, 6, 8)",8,8,2,2,double,ADD,decrease,BUUUxy,,,,,0,1,1,11,,,,,,space,2.98324724816,8,1,4.16652102352,2017_Apr_14_1719,60.006068979,KRITL,001,31040,
,,,,,,,,"('HALF', 'INCREASE', 'TIMES', 'x', 'y')",increase,3,"(9, 10, 5)",5,5,3,3,TIMES,half,0,UUBxy,,,,,0,2,2,9,,,,,,space,1.20003702614,5,1,3.18327202558,2017_Apr_14_1719,60.006068979,KRITL,001,31040,
,,,,,,,,"('INCREASE', 'HALF', 'THIRD', 'TIMES', 'x', 'y')",half,4,"(12, 4, 2, 3)",3,3,4,3,third,increase,TIMES,UUUBxy,,,,,0,3,3,16,,,,,,space,2.48330796682,3,1,5.49974365174,2017_Apr_14_1719,60.006068979,KRITL,001,31040,
,,,,,,,,"('DOUBLE', 'SUBTRACT', 'INCREASE', 'x', 'y')",SUBTRACT,3,"(4, 1, 2)",2,2,3,3,increase,double,0,UBUxy,,,,,0,4,4,6,,,,,,space,1.99998635144,2,1,2.26689404959,2017_Apr_14_1719,60.006068979,KRITL,001,31040,
,,,,,,,,"('ADD', 'DOUBLE', 'DECREASE', 'x', 'y')",double,3,"(1, 2, 7)",7,7,5,2,decrease,ADD,0,BUUxy,,,,,0,5,5,4,,,,,,space,1.83314861095,7,1,2.71663806881,2017_Apr_14_1719,60.006068979,KRITL,001,31040,
,,,,,,,,"('ADD', 'TRIPLE', 'HALF', 'x', 'y')",triple,3,"(2, 6, 8)",8,8,2,4,half,ADD,0,BUUxy,,,,,0,6,6,5,,,,,,space,1.46670254957,8,1,3.61657196071,2017_Apr_14_1719,60.006068979,KRITL,001,31040,
,,,,,,,,"('DECREASE', 'SUBTRACT', 'DOUBLE', 'THIRD', 'x', 'y')",SUBTRACT,4,"(3, 6, 4, 3)",3,3,2,9,double,decrease,third,UBUUxy,,,,,0,7,7,13,,,,,,space,6.71625520877,3,1,6.2329997365,2017_Apr_14_1719,60.006068979,KRITL,001,31040,
,,,,,,,,"('DOUBLE', 'THIRD', 'ADD', 'x', 'y')",third,3,"(9, 3, 6)",6,6,4,5,ADD,double,0,UUBxy,,,,,0,8,8,8,,,,,,space,1.1834011621,6,1,2.2333483001,2017_Apr_14_1719,60.006068979,KRITL,001,31040,
,,,,,,,,"('DECREASE', 'DOUBLE', 'TIMES', 'THIRD', 'x', 'y')",double,4,"(1, 3, 6, 5)",5,5,3,3,TIMES,decrease,third,UUBUxy,,,,,0,9,9,14,,,,,,space,5.7830023437,5,1,3.73321303923,2017_Apr_14_1719,60.006068979,KRITL,001,31040,
,,,,,,,,"('DIVIDE', 'DECREASE', 'x', 'y')",decrease,2,"(8, 2)",2,2,4,9,0,DIVIDE,0,BUxy,,,,,0,10,10,1,,,,,,space,1.01674680246,2,1,1.90005322944,2017_Apr_14_1719,60.006068979,KRITL,001,31040,
,,,,,,,,"('HALF', 'ADD', 'x', 'y')",ADD,2,"(12, 6)",6,6,8,4,0,half,0,UBxy,,,,,0,11,11,3,,,,,,space,1.01672965425,6,1,1.88337886942,2017_Apr_14_1719,60.006068979,KRITL,001,31040,
,,,,,,,,"('ADD', 'DECREASE', 'THIRD', 'DOUBLE', 'x', 'y')",decrease,4,"(18, 6, 5, 9)",9,9,4,9,third,ADD,double,BUUUxy,,,,,0,12,12,10,,,,,,space,4.51646315705,9,1,8.88276118386,2017_Apr_14_1719,60.006068979,KRITL,001,31040,
,,,,,,,,"('INCREASE', 'ADD', 'HALF', 'x', 'y')",ADD,3,"(1, 4, 5)",5,5,3,2,half,increase,0,UBUxy,,,,,0,13,13,7,,,,,,space,1.78335055738,5,1,4.89979530635,2017_Apr_14_1719,60.006068979,KRITL,001,31040,
,,,,,,,,"('DECREASE', 'TRIPLE', 'SUBTRACT', 'DOUBLE', 'x', 'y')",triple,4,"(6, 3, 9, 8)",8,8,3,3,SUBTRACT,decrease,double,UUBUxy,,,,,0,14,14,15,,,,,,space,8.19951348077,8,1,7.43283798336,2017_Apr_14_1719,60.006068979,KRITL,001,31040,
,,,,,,,,"('THIRD', 'HALF', 'INCREASE', 'SUBTRACT', 'x', 'y')",half,4,"(5, 6, 3, 1)",1,1,2,7,increase,third,SUBTRACT,UUUBxy,,,,,0,15,15,17,,,,,,space,7.59952838923,1,1,6.99961574012,2017_Apr_14_1719,60.006068979,KRITL,001,31040,
,,,,,,,,"('DECREASE', 'ADD', 'THIRD', 'HALF', 'x', 'y')",ADD,4,"(3, 1, 7, 6)",6,6,6,6,third,decrease,half,UBUUxy,,,,,0,16,16,12,,,,,,space,3.96651724391,6,1,10.5159774077,2017_Apr_14_1719,60.006068979,KRITL,001,31040,
,,,,,,,,"('DECREASE', 'TIMES', 'x', 'y')",TIMES,2,"(9, 8)",8,8,3,3,0,decrease,0,UBxy,,,,,0,17,17,2,,,,,,space,1.00014418495,8,1,1.56674451023,2017_Apr_14_1719,60.006068979,KRITL,001,31040,
,,,,,,,,"('THIRD', 'HALF', 'ADD', 'x', 'y')",half,3,"(6, 3, 1)",1,1,3,3,ADD,third,0,UUBxy,,,,,0,0,0,9,,,,,,space,2.74992869492,1,1,3.71655232777,2017_Apr_14_1719,60.006068979,KRITL,001,31040,
,,,,,,,,"('ADD', 'DOUBLE', 'DECREASE', 'THIRD', 'x', 'y')",double,4,"(2, 1, 2, 8)",8,8,6,6,decrease,ADD,third,BUUUxy,,,,,0,1,1,10,,,,,,space,8.46606141649,8,1,6.39965409611,2017_Apr_14_1719,60.006068979,KRITL,001,31040,
,,,,,,,,"('DIVIDE', 'INCREASE', 'x', 'y')",increase,2,"(4, 2)",2,2,2,3,0,DIVIDE,0,BUxy,,,,,0,2,2,0,,,,,,space,1.36672918181,2,1,1.26673866584,2017_Apr_14_1719,60.006068979,KRITL,001,31040,
,,,,,,,,"('THIRD', 'TIMES', 'DOUBLE', 'DECREASE', 'x', 'y')",TIMES,4,"(1, 2, 6, 2)",2,2,3,2,double,third,decrease,UBUUxy,,,,,0,3,3,13,,,,,,space,6.84959199507,2,1,6.18300395354,2017_Apr_14_1719,60.006068979,KRITL,001,31040,
,,,,,,,,"('SUBTRACT', 'DECREASE', 'TRIPLE', 'DOUBLE', 'x', 'y')",decrease,4,"(6, 18, 17, 8)",8,8,9,3,triple,SUBTRACT,double,BUUUxy,,,,,0,4,4,11,,,,,,space,6.94958181115,8,1,14.2990091484,2017_Apr_14_1719,60.006068979,KRITL,001,31040,
,,,,,,,,"('DOUBLE', 'ADD', 'INCREASE', 'THIRD', 'x', 'y')",ADD,4,"(1, 2, 4, 8)",8,8,2,3,increase,double,third,UBUUxy,,,,,0,5,5,12,,,,,,space,6.84958359596,8,1,3.68321935608,2017_Apr_14_1719,60.006068979,KRITL,001,31040,
,,,,,,,,"('HALF', 'TRIPLE', 'INCREASE', 'DIVIDE', 'x', 'y')",triple,4,"(3, 4, 12, 6)",6,6,3,9,increase,half,DIVIDE,UUUBxy,,,,,0,6,6,16,,,,,,space,6.63290965586,6,1,8.9161064043,2017_Apr_14_1719,60.006068979,KRITL,001,31040,
,,,,,,,,"('THIRD', 'INCREASE', 'DIVIDE', 'DOUBLE', 'x', 'y')",increase,4,"(18, 2, 3, 1)",1,1,9,9,DIVIDE,third,double,UUBUxy,,,,,0,7,7,15,,,,,,space,6.19955127683,1,1,8.96598599936,2017_Apr_14_1719,60.006068979,KRITL,001,31040,
,,,,,,,,"('INCREASE', 'SUBTRACT', 'HALF', 'x', 'y')",SUBTRACT,3,"(4, 2, 3)",3,3,2,8,half,increase,0,UBUxy,,,,,0,8,8,7,,,,,,space,5.48303149565,3,1,4.9997739236,2017_Apr_14_1719,60.006068979,KRITL,001,31040,
,,,,,,,,"('HALF', 'ADD', 'TRIPLE', 'x', 'y')",ADD,3,"(9, 12, 6)",6,6,3,3,triple,half,0,UBUxy,,,,,0,9,9,6,,,,,,space,5.3997191893,6,1,2.64999837268,2017_Apr_14_1719,60.006068979,KRITL,001,31040,
,,,,,,,,"('DECREASE', 'DIVIDE', 'x', 'y')",DIVIDE,2,"(2, 1)",1,1,4,8,0,decrease,0,UBxy,,,,,0,10,10,2,,,,,,space,1.65000432206,1,1,1.26681530781,2017_Apr_14_1719,60.006068979,KRITL,001,31040,
,,,,,,,,"('THIRD', 'DOUBLE', 'INCREASE', 'TIMES', 'x', 'y')",double,4,"(8, 9, 18, 6)",6,6,4,2,increase,third,TIMES,UUUBxy,,,,,0,11,11,17,,,,,,space,8.01611581832,6,1,6.11636565725,2017_Apr_14_1719,60.006068979,KRITL,001,31040,
,,,,,,,,"('DIVIDE', 'DECREASE', 'TRIPLE', 'x', 'y')",decrease,3,"(9, 8, 4)",4,4,2,3,triple,DIVIDE,0,BUUxy,,,,,0,12,12,5,,,,,,space,2.96658478686,4,1,3.54993541422,2017_Apr_14_1719,60.006068979,KRITL,001,31040,
,,,,,,,,"('SUBTRACT', 'DECREASE', 'x', 'y')",decrease,2,"(5, 3)",3,3,2,6,0,SUBTRACT,0,BUxy,,,,,0,13,13,1,,,,,,space,1.8999758875,3,1,2.3333444155,2017_Apr_14_1719,60.006068979,KRITL,001,31040,
,,,,,,,,"('THIRD', 'DOUBLE', 'ADD', 'DECREASE', 'x', 'y')",double,4,"(5, 12, 24, 8)",8,8,7,6,ADD,third,decrease,UUBUxy,,,,,0,14,14,14,,,,,,space,3.68317316088,8,1,9.29938255943,2017_Apr_14_1719,60.006068979,KRITL,001,31040,
,,,,,,,,"('INCREASE', 'TRIPLE', 'DIVIDE', 'x', 'y')",triple,3,"(2, 6, 7)",7,7,3,6,DIVIDE,increase,0,UUBxy,,,,,0,15,15,8,,,,,,space,2.2666305271,7,1,5.06642761829,2017_Apr_14_1719,60.006068979,KRITL,001,31040,
,,,,,,,,"('INCREASE', 'ADD', 'x', 'y')",ADD,2,"(5, 6)",6,6,2,3,0,increase,0,UBxy,,,,,0,16,16,3,,,,,,space,1.33337486236,6,1,3.44991865096,2017_Apr_14_1719,60.006068979,KRITL,001,31040,
,,,,,,,,"('ADD', 'HALF', 'THIRD', 'x', 'y')",half,3,"(2, 1, 9)",9,9,8,6,third,ADD,0,BUUxy,,,,,0,17,17,4,,,,,,space,2.98323989889,9,1,3.99987086348,2017_Apr_14_1719,60.006068979,KRITL,001,31040,
,,,,,,,,"('THIRD', 'DECREASE', 'TIMES', 'x', 'y')",decrease,3,"(25, 24, 8)",8,8,5,5,TIMES,third,0,UUBxy,,,,,0,0,0,8,,,,,,space,1.53317006369,8,1,3.56657617778,2017_Apr_14_1719,60.006068979,KRITL,001,31040,
,,,,,,,,"('THIRD', 'ADD', 'INCREASE', 'x', 'y')",ADD,3,"(8, 15, 5)",5,5,7,7,increase,third,0,UBUxy,,,,,0,1,1,6,,,,,,space,1.51671268104,5,1,2.25001496094,2017_Apr_14_1719,60.006068979,KRITL,001,31040,
,,,,,,,,"('THIRD', 'SUBTRACT', 'x', 'y')",SUBTRACT,2,"(3, 1)",1,1,2,5,0,third,0,UBxy,,,,,0,2,2,3,,,,,,space,1.38336189618,1,1,1.90003643121,2017_Apr_14_1719,60.006068979,KRITL,001,31040,
,,,,,,,,"('THIRD', 'DOUBLE', 'ADD', 'INCREASE', 'x', 'y')",double,4,"(10, 12, 24, 8)",8,8,2,9,ADD,third,increase,UUBUxy,,,,,0,3,3,14,,,,,,space,5.51636866693,8,1,4.649793994,2017_Apr_14_1719,60.006068979,KRITL,001,31040,
,,,,,,,,"('TIMES', 'THIRD', 'HALF', 'x', 'y')",third,3,"(3, 1, 5)",5,5,5,6,half,TIMES,0,BUUxy,,,,,0,4,4,5,,,,,,space,2.19997018311,5,1,3.1499432534,2017_Apr_14_1719,60.006068979,KRITL,001,31040,
,,,,,,,,"('THIRD', 'ADD', 'x', 'y')",ADD,2,"(9, 3)",3,3,5,4,0,third,0,UBxy,,,,,0,5,5,2,,,,,,space,1.56670601422,3,1,1.61674904224,2017_Apr_14_1719,60.006068979,KRITL,001,31040,
,,,,,,,,"('THIRD', 'INCREASE', 'HALF', 'DIVIDE', 'x', 'y')",increase,4,"(4, 2, 3, 1)",1,1,2,8,half,third,DIVIDE,UUUBxy,,,,,0,6,6,16,,,,,,space,3.34965376364,1,1,3.89988209732,2017_Apr_14_1719,60.006068979,KRITL,001,31040,
,,,,,,,,"('SUBTRACT', 'HALF', 'INCREASE', 'TRIPLE', 'x', 'y')",half,4,"(15, 16, 8, 3)",3,3,5,5,increase,SUBTRACT,triple,BUUUxy,,,,,0,7,7,10,,,,,,space,8.94940507959,3,1,3.06660644963,2017_Apr_14_1719,60.006068979,KRITL,001,31040,
,,,,,,,,"('TIMES', 'DECREASE', 'HALF', 'x', 'y')",decrease,3,"(4, 3, 9)",9,9,3,8,half,TIMES,0,BUUxy,,,,,0,8,8,4,,,,,,space,1.83332709232,9,1,2.83327949728,2017_Apr_14_1719,60.006068979,KRITL,001,31040,
,,,,,,,,"('TRIPLE', 'SUBTRACT', 'DOUBLE', 'DECREASE', 'x', 'y')",SUBTRACT,4,"(2, 4, 1, 3)",3,3,3,3,double,triple,decrease,UBUUxy,,,,,0,9,9,13,,,,,,space,5.03305335087,3,1,2.94996047163,2017_Apr_14_1719,60.006068979,KRITL,001,31040,
,,,,,,,,"('TRIPLE', 'HALF', 'ADD', 'DECREASE', 'x', 'y')",half,4,"(1, 4, 2, 6)",6,6,3,2,ADD,triple,decrease,UUBUxy,,,,,0,10,10,15,,,,,,space,3.46653771677,6,1,4.88307685091,2017_Apr_14_1719,60.006068979,KRITL,001,31040,
,,,,,,,,"('INCREASE', 'DIVIDE', 'TRIPLE', 'DOUBLE', 'x', 'y')",DIVIDE,4,"(6, 18, 3, 4)",4,4,6,3,triple,increase,double,UBUUxy,,,,,0,11,11,12,,,,,,space,3.26659343098,4,1,9.48270602961,2017_Apr_14_1719,60.006068979,KRITL,001,31040,
,,,,,,,,"('TIMES', 'INCREASE', 'x', 'y')",increase,2,"(3, 6)",6,6,2,2,0,TIMES,0,BUxy,,,,,0,12,12,1,,,,,,space,0.816764020681,6,1,2.50000157484,2017_Apr_14_1719,60.006068979,KRITL,001,31040,
,,,,,,,,"('THIRD', 'TIMES', 'DECREASE', 'x', 'y')",TIMES,3,"(3, 15, 5)",5,5,5,4,decrease,third,0,UBUxy,,,,,0,13,13,7,,,,,,space,3.46653876666,5,1,5.26642229882,2017_Apr_14_1719,60.006068979,KRITL,001,31040,
,,,,,,,,"('TRIPLE', 'HALF', 'DIVIDE', 'x', 'y')",half,3,"(2, 1, 3)",3,3,2,4,DIVIDE,triple,0,UUBxy,,,,,0,14,14,9,,,,,,space,2.23327410783,3,1,1.76672904182,2017_Apr_14_1719,60.006068979,KRITL,001,31040,
,,,,,,,,"('TIMES', 'INCREASE', 'THIRD', 'DOUBLE', 'x', 'y')",increase,4,"(6, 2, 3, 9)",9,9,3,3,third,TIMES,double,BUUUxy,,,,,0,15,15,11,,,,,,space,4.98299107488,9,1,3.96657428797,2017_Apr_14_1719,60.006068979,KRITL,001,31040,
,,,,,,,,"('TRIPLE', 'DECREASE', 'HALF', 'TIMES', 'x', 'y')",decrease,4,"(6, 3, 2, 6)",6,6,2,3,half,triple,TIMES,UUUBxy,,,,,0,16,16,17,,,,,,space,8.33282157007,6,1,4.48316483173,2017_Apr_14_1719,60.006068979,KRITL,001,31040,
,,,,,,,,"('TIMES', 'DECREASE', 'x', 'y')",decrease,2,"(2, 4)",4,4,2,3,0,TIMES,0,BUxy,,,,,0,17,17,0,,,,,,space,1.26673271644,4,1,3.04997128548,2017_Apr_14_1719,60.006068979,KRITL,001,31040,
,,,,,,,,"('DOUBLE', 'THIRD', 'TIMES', 'x', 'y')",third,3,"(12, 4, 8)",8,8,6,2,TIMES,double,0,UUBxy,,,,,0,0,0,9,,,,,,space,3.1332265478,8,1,2.95005461181,2017_Apr_14_1719,60.006068979,KRITL,001,31040,
,,,,,,,,"('TIMES', 'DOUBLE', 'x', 'y')",double,2,"(4, 8)",8,8,2,2,0,TIMES,0,BUxy,,,,,0,1,1,1,,,,,,space,1.48336046134,8,1,1.30009473511,2017_Apr_14_1719,60.006068979,KRITL,001,31040,
,,,,,,,,"('DOUBLE', 'DIVIDE', 'TRIPLE', 'INCREASE', 'x', 'y')",DIVIDE,4,"(5, 15, 3, 6)",6,6,5,4,triple,double,increase,UBUUxy,,,,,0,2,2,12,,,,,,space,5.81632656633,6,1,5.49975415066,2017_Apr_14_1719,60.006068979,KRITL,001,31040,
,,,,,,,,"('SUBTRACT', 'DOUBLE', 'TRIPLE', 'DECREASE', 'x', 'y')",double,4,"(2, 6, 12, 8)",8,8,4,3,triple,SUBTRACT,decrease,BUUUxy,,,,,0,3,3,10,,,,,,space,9.01605912423,8,1,8.19951803028,2017_Apr_14_1719,60.006068979,KRITL,001,31040,
,,,,,,,,"('DIVIDE', 'THIRD', 'x', 'y')",third,2,"(3, 1)",1,1,3,9,0,DIVIDE,0,BUxy,,,,,0,4,4,0,,,,,,space,0.85010854117,1,1,4.34984869329,2017_Apr_14_1719,60.006068979,KRITL,001,31040,
,,,,,,,,"('THIRD', 'DECREASE', 'TIMES', 'HALF', 'x', 'y')",decrease,4,"(4, 16, 15, 5)",5,5,4,8,TIMES,third,half,UUBUxy,,,,,0,5,5,15,,,,,,space,3.38323275966,5,1,5.53305737546,2017_Apr_14_1719,60.006068979,KRITL,001,31040,
,,,,,,,,"('TIMES', 'HALF', 'INCREASE', 'x', 'y')",half,3,"(6, 3, 9)",9,9,3,5,increase,TIMES,0,BUUxy,,,,,0,6,6,5,,,,,,space,0.933382701507,9,1,2.88328997869,2017_Apr_14_1719,60.006068979,KRITL,001,31040,
,,,,,,,,"('THIRD', 'TIMES', 'HALF', 'x', 'y')",TIMES,3,"(3, 18, 6)",6,6,6,6,half,third,0,UBUxy,,,,,0,7,7,7,,,,,,space,0.900022782618,6,1,2.36667808716,2017_Apr_14_1719,60.006068979,KRITL,001,31040,
,,,,,,,,"('INCREASE', 'ADD', 'HALF', 'TRIPLE', 'x', 'y')",ADD,4,"(6, 3, 6, 7)",7,7,3,2,half,increase,triple,UBUUxy,,,,,0,8,8,13,,,,,,space,1.51668223419,7,1,4.33316838386,2017_Apr_14_1719,60.006068979,KRITL,001,31040,
,,,,,,,,"('THIRD', 'DIVIDE', 'DECREASE', 'x', 'y')",DIVIDE,3,"(6, 3, 1)",1,1,2,7,decrease,third,0,UBUxy,,,,,0,9,9,6,,,,,,space,0.816851161566,1,1,3.63328446678,2017_Apr_14_1719,60.006068979,KRITL,001,31040,
,,,,,,,,"('DECREASE', 'TRIPLE', 'HALF', 'SUBTRACT', 'x', 'y')",triple,4,"(4, 2, 6, 5)",5,5,2,6,half,decrease,SUBTRACT,UUUBxy,,,,,0,10,10,16,,,,,,space,3.74972361635,5,1,7.24959290496,2017_Apr_14_1719,60.006068979,KRITL,001,31040,
,,,,,,,,"('THIRD', 'DIVIDE', 'x', 'y')",DIVIDE,2,"(3, 1)",1,1,2,6,0,third,0,UBxy,,,,,0,11,11,3,,,,,,space,0.799869183655,1,1,2.5166633362,2017_Apr_14_1719,60.006068979,KRITL,001,31040,
,,,,,,,,"('SUBTRACT', 'TRIPLE', 'DECREASE', 'x', 'y')",triple,3,"(4, 12, 3)",3,3,9,5,decrease,SUBTRACT,0,BUUxy,,,,,0,12,12,4,,,,,,space,2.41661367638,3,1,5.56645789012,2017_Apr_14_1719,60.006068979,KRITL,001,31040,
,,,,,,,,"('DECREASE', 'TRIPLE', 'DIVIDE', 'DOUBLE', 'x', 'y')",triple,4,"(6, 2, 6, 5)",5,5,3,3,DIVIDE,decrease,double,UUBUxy,,,,,0,13,13,14,,,,,,space,4.86636889441,5,1,6.93294244746,2017_Apr_14_1719,60.006068979,KRITL,001,31040,
,,,,,,,,"('INCREASE', 'SUBTRACT', 'x', 'y')",SUBTRACT,2,"(3, 4)",4,4,3,6,0,increase,0,UBxy,,,,,0,14,14,2,,,,,,space,0.800092460355,4,1,2.03336306856,2017_Apr_14_1719,60.006068979,KRITL,001,31040,
,,,,,,,,"('HALF', 'TRIPLE', 'INCREASE', 'SUBTRACT', 'x', 'y')",triple,4,"(1, 2, 6, 3)",3,3,2,3,increase,half,SUBTRACT,UUUBxy,,,,,0,15,15,17,,,,,,space,4.56644074191,3,1,5.24958345597,2017_Apr_14_1719,60.006068979,KRITL,001,31040,
,,,,,,,,"('DOUBLE', 'DECREASE', 'ADD', 'x', 'y')",decrease,3,"(4, 3, 6)",6,6,2,2,ADD,double,0,UUBxy,,,,,0,16,16,8,,,,,,space,0.983412780886,6,1,2.36665988906,2017_Apr_14_1719,60.006068979,KRITL,001,31040,
,,,,,,,,"('SUBTRACT', 'TRIPLE', 'DECREASE', 'DOUBLE', 'x', 'y')",triple,4,"(4, 3, 9, 1)",1,1,8,2,decrease,SUBTRACT,double,BUUUxy,,,,,0,17,17,11,,,,,,space,3.61658770908,1,1,4.61645017343,2017_Apr_14_1719,60.006068979,KRITL,001,31040,
,,,,,,,,"('TRIPLE', 'SUBTRACT', 'x', 'y')",SUBTRACT,2,"(2, 6)",6,6,6,8,0,triple,0,UBxy,,,,,0,0,0,3,,,,,,space,1.23342599202,6,1,2.91661525119,2017_Apr_14_1719,60.006068979,KRITL,001,31040,
,,,,,,,,"('DIVIDE', 'DECREASE', 'THIRD', 'DOUBLE', 'x', 'y')",decrease,4,"(12, 4, 3, 1)",1,1,3,6,third,DIVIDE,double,BUUUxy,,,,,0,1,1,10,,,,,,space,4.21647516079,1,1,4.29982701305,2017_Apr_14_1719,60.006068979,KRITL,001,31040,
,,,,,,,,"('TRIPLE', 'HALF', 'TIMES', 'x', 'y')",half,3,"(6, 3, 9)",9,9,3,2,TIMES,triple,0,UUBxy,,,,,0,2,2,9,,,,,,space,1.51670708161,9,1,3.53320645989,2017_Apr_14_1719,60.006068979,KRITL,001,31040,
,,,,,,,,"('TIMES', 'DECREASE', 'THIRD', 'DOUBLE', 'x', 'y')",decrease,4,"(6, 2, 1, 2)",2,2,2,3,third,TIMES,double,BUUUxy,,,,,0,3,3,11,,,,,,space,2.66660343995,2,1,3.36659409592,2017_Apr_14_1719,60.006068979,KRITL,001,31040,
,,,,,,,,"('TIMES', 'THIRD', 'x', 'y')",third,2,"(1, 4)",4,4,4,3,0,TIMES,0,BUxy,,,,,0,4,4,1,,,,,,space,0.833434531116,4,1,1.78339535269,2017_Apr_14_1719,60.006068979,KRITL,001,31040,
,,,,,,,,"('INCREASE', 'TIMES', 'x', 'y')",TIMES,2,"(8, 9)",9,9,4,2,0,increase,0,UBxy,,,,,0,5,5,2,,,,,,space,1.21672433484,9,1,1.28342212489,2017_Apr_14_1719,60.006068979,KRITL,001,31040,
,,,,,,,,"('THIRD', 'INCREASE', 'SUBTRACT', 'HALF', 'x', 'y')",increase,4,"(4, 2, 3, 1)",1,1,2,8,SUBTRACT,third,half,UUBUxy,,,,,0,6,6,15,,,,,,space,8.09945962139,1,1,3.33324152627,2017_Apr_14_1719,60.006068979,KRITL,001,31040,
,,,,,,,,"('SUBTRACT', 'THIRD', 'x', 'y')",third,2,"(3, 1)",1,1,2,9,0,SUBTRACT,0,BUxy,,,,,0,7,7,0,,,,,,space,0.866752804344,1,1,1.45006353586,2017_Apr_14_1719,60.006068979,KRITL,001,31040,
,,,,,,,,"('DOUBLE', 'TIMES', 'THIRD', 'x', 'y')",TIMES,3,"(1, 4, 8)",8,8,4,3,third,double,0,UBUxy,,,,,0,8,8,6,,,,,,space,1.81677381965,8,1,2.54965509349,2017_Apr_14_1719,60.006068979,KRITL,001,31040,
,,,,,,,,"('DECREASE', 'HALF', 'DIVIDE', 'x', 'y')",half,3,"(4, 2, 1)",1,1,2,8,DIVIDE,decrease,0,UUBxy,,,,,0,9,9,8,,,,,,space,1.01671145618,1,1,4.06652595801,2017_Apr_14_1719,60.006068979,KRITL,001,31040,
,,,,,,,,"('INCREASE', 'TRIPLE', 'HALF', 'ADD', 'x', 'y')",triple,4,"(4, 2, 6, 7)",7,7,2,2,half,increase,ADD,UUUBxy,,,,,0,10,10,17,,,,,,space,2.44994804793,7,1,6.31634248965,2017_Apr_14_1719,60.006068979,KRITL,001,31040,
,,,,,,,,"('SUBTRACT', 'DOUBLE', 'DECREASE', 'x', 'y')",double,3,"(8, 16, 7)",7,7,9,9,decrease,SUBTRACT,0,BUUxy,,,,,0,11,11,5,,,,,,space,1.23340079462,9,0,3.96652144348,2017_Apr_14_1719,60.006068979,KRITL,001,31040,
,,,,,,,,"('DECREASE', 'HALF', 'TRIPLE', 'ADD', 'x', 'y')",half,4,"(4, 12, 6, 5)",5,5,2,2,triple,decrease,ADD,UUUBxy,,,,,0,12,12,16,,,,,,space,5.68304087466,5,1,5.43307560857,2017_Apr_14_1719,60.006068979,KRITL,001,31040,
,,,,,,,,"('TRIPLE', 'SUBTRACT', 'INCREASE', 'HALF', 'x', 'y')",SUBTRACT,4,"(3, 4, 1, 3)",3,3,3,6,increase,triple,half,UBUUxy,,,,,0,13,13,13,,,,,,space,7.949477872,3,1,3.16662811238,2017_Apr_14_1719,60.006068979,KRITL,001,31040,
,,,,,,,,"('INCREASE', 'DIVIDE', 'HALF', 'x', 'y')",DIVIDE,3,"(2, 1, 2)",2,2,2,4,half,increase,0,UBUxy,,,,,0,14,14,7,,,,,,space,1.28339657758,2,1,1.38340494171,2017_Apr_14_1719,60.006068979,KRITL,001,31040,
,,,,,,,,"('ADD', 'DECREASE', 'HALF', 'x', 'y')",decrease,3,"(3, 2, 6)",6,6,4,6,half,ADD,0,BUUxy,,,,,0,15,15,4,,,,,,space,1.36671238358,6,1,2.61666785073,2017_Apr_14_1719,60.006068979,KRITL,001,31040,
,,,,,,,,"('INCREASE', 'HALF', 'TIMES', 'TRIPLE', 'x', 'y')",half,4,"(6, 12, 6, 7)",7,7,2,2,TIMES,increase,triple,UUBUxy,,,,,0,16,16,14,,,,,,space,4.56648658711,5,0,10.2493538799,2017_Apr_14_1719,60.006068979,KRITL,001,31040,
,,,,,,,,"('DECREASE', 'DIVIDE', 'TRIPLE', 'DOUBLE', 'x', 'y')",DIVIDE,4,"(6, 18, 2, 1)",1,1,9,3,triple,decrease,double,UBUUxy,,,,,0,17,17,12,,,,,,space,7.51603865137,1,1,5.34974965363,2017_Apr_14_1719,60.006068979,KRITL,001,31040,
,,,,,,,,"('DOUBLE', 'TRIPLE', 'SUBTRACT', 'x', 'y')",triple,3,"(1, 3, 6)",6,6,3,4,SUBTRACT,double,0,UUBxy,,,,,0,0,0,9,,,,,,space,5.93297044453,6,1,2.83329699546,2017_Apr_14_1719,60.006068979,KRITL,001,31040,
,,,,,,,,"('DECREASE', 'THIRD', 'TIMES', 'HALF', 'x', 'y')",third,4,"(2, 12, 4, 3)",3,3,6,4,TIMES,decrease,half,UUBUxy,,,,,0,1,1,14,,,,,,space,9.78266882853,3,1,3.89986739884,2017_Apr_14_1719,60.006068979,KRITL,001,31040,
,,,,,,,,"('SUBTRACT', 'HALF', 'TRIPLE', 'x', 'y')",half,3,"(12, 6, 2)",2,2,4,4,triple,SUBTRACT,0,BUUxy,,,,,0,2,2,5,,,,,,space,3.36655489999,2,1,2.25001391105,2017_Apr_14_1719,60.006068979,KRITL,001,31040,
,,,,,,,,"('DECREASE', 'TIMES', 'DOUBLE', 'THIRD', 'x', 'y')",TIMES,4,"(1, 2, 8, 7)",7,7,4,3,double,decrease,third,UBUUxy,,,,,0,3,3,13,,,,,,space,5.93302783853,7,1,4.3665136043,2017_Apr_14_1719,60.006068979,KRITL,001,31040,
,,,,,,,,"('HALF', 'TIMES', 'x', 'y')",TIMES,2,"(16, 8)",8,8,4,4,0,half,0,UBxy,,,,,0,4,4,3,,,,,,space,1.10006400832,8,1,1.58339577267,2017_Apr_14_1719,60.006068979,KRITL,001,31040,
,,,,,,,,"('ADD', 'DOUBLE', 'x', 'y')",double,2,"(4, 8)",8,8,4,2,0,ADD,0,BUxy,,,,,0,5,5,0,,,,,,space,0.800082311413,8,1,1.43342557206,2017_Apr_14_1719,60.006068979,KRITL,001,31040,
,,,,,,,,"('DOUBLE', 'DECREASE', 'TRIPLE', 'DIVIDE', 'x', 'y')",decrease,4,"(1, 3, 2, 4)",4,4,4,4,triple,double,DIVIDE,UUUBxy,,,,,0,6,6,17,,,,,,space,2.81657469043,4,1,4.79960531119,2017_Apr_14_1719,60.006068979,KRITL,001,31040,
,,,,,,,,"('DIVIDE', 'DOUBLE', 'THIRD', 'x', 'y')",double,3,"(2, 4, 1)",1,1,4,6,third,DIVIDE,0,BUUxy,,,,,0,7,7,4,,,,,,space,1.50000087489,1,1,2.15000729676,2017_Apr_14_1719,60.006068979,KRITL,001,31040,
,,,,,,,,"('DOUBLE', 'SUBTRACT', 'x', 'y')",SUBTRACT,2,"(1, 2)",2,2,7,8,0,double,0,UBxy,,,,,0,8,8,2,,,,,,space,1.20006712299,2,1,1.16675654898,2017_Apr_14_1719,60.006068979,KRITL,001,31040,
,,,,,,,,"('DECREASE', 'ADD', 'DOUBLE', 'THIRD', 'x', 'y')",ADD,4,"(3, 6, 10, 9)",9,9,4,9,double,decrease ,third,UBUUxy,,,,,0,9,9,12,,,,,,space,3.06655570492,9,1,4.36658324703,2017_Apr_14_1719,60.006068979,KRITL,001,31040,
,,,,,,,,"('DOUBLE', 'TRIPLE', 'DIVIDE', 'DECREASE', 'x', 'y')",triple,4,"(8, 1, 3, 6)",6,6,8,9,DIVIDE,double,decrease,UUBUxy,,,,,0,10,10,15,,,,,,space,8.23280095722,6,1,2.51666683581,2017_Apr_14_1719,60.006068979,KRITL,001,31040,
,,,,,,,,"('HALF', 'SUBTRACT', 'TRIPLE', 'x', 'y')",SUBTRACT,3,"(9, 2, 1)",1,1,7,3,triple,half,0,UBUxy,,,,,0,11,11,6,,,,,,space,4.14979661873,1,1,2.84997625498,2017_Apr_14_1719,60.006068979,KRITL,001,31040,
,,,,,,,,"('DOUBLE', 'DECREASE', 'SUBTRACT', 'x', 'y')",decrease,3,"(5, 4, 8)",8,8,2,7,SUBTRACT,double,0,UUBxy,,,,,0,12,12,8,,,,,,space,3.03325947936,8,1,3.599923498,2017_Apr_14_1719,60.006068979,KRITL,001,31040,
,,,,,,,,"('INCREASE', 'DIVIDE', 'THIRD', 'x', 'y')",DIVIDE,3,"(3, 1, 2)",2,2,3,9,third,increase,0,UBUxy,,,,,0,13,13,7,,,,,,space,3.53320226035,2,1,3.23334480048,2017_Apr_14_1719,60.006068979,KRITL,001,31040,
,,,,,,,,"('DIVIDE', 'INCREASE', 'DOUBLE', 'THIRD', 'x', 'y')",increase,4,"(2, 4, 5, 1)",1,1,5,6,double,DIVIDE,third,BUUUxy,,,,,0,14,14,11,,,,,,space,9.11608673635,1,1,5.98298547548,2017_Apr_14_1719,60.006068979,KRITL,001,31040,
,,,,,,,,"('ADD', 'THIRD', 'INCREASE', 'HALF', 'x', 'y')",third,4,"(2, 3, 1, 7)",7,7,6,4,increase,ADD,half,BUUUxy,,,,,0,15,15,10,,,,,,space,2.98324514835,7,1,2.84997415519,2017_Apr_14_1719,60.006068979,KRITL,001,31040,
,,,,,,,,"('DECREASE', 'HALF', 'TRIPLE', 'DIVIDE', 'x', 'y')",half,4,"(4, 12, 6, 5)",5,5,2,8,triple,decrease,DIVIDE,UUUBxy,,,,,0,16,16,16,,,,,,space,3.76651521414,5,1,5.63306993915,2017_Apr_14_1719,60.006068979,KRITL,001,31040,
,,,,,,,,"('DIVIDE', 'DOUBLE', 'x', 'y')",double,2,"(12, 2)",2,2,6,6,0,DIVIDE,0,BUxy,,,,,0,17,17,1,,,,,,space,1.13339802992,2,1,1.65009006311,2017_Apr_14_1719,60.006068979,KRITL,001,31040,
