operationc,operationb,operationa,correctresponse,valuey,operationd,condition,valuex,Rule,Operatora,Length,Intermediate,CorrectResponse,Result,Y,X,Operatorc,Operatorb,Operatord,Structure,practice_trials.thisRepN,practice_trials.thisTrialN,practice_trials.thisN,practice_trials.thisIndex,block.thisRepN,block.thisTrialN,block.thisN,block.thisIndex,practice_encoding.keys,practice_encoding.rt,practice_execution.keys,practice_execution.corr,practice_execution.rt,encoding.keys,encoding.rt,execution.keys,execution.corr,execution.rt,date,frameRate,expName,session,participant,
0,ADD,half,7,5,0,2,4,,,,,,,,,,,,,0,0,0,2,,,,,['space'],[4.466661971993744],None,0,,,,,,,2017_May_12_0909,60.0001710472,KRITL,001,31053,
0,ADD,decrease,7,5,0,2,3,,,,,,,,,,,,,0,1,1,0,,,,,['space'],[3.5500575052574277],7,1,4.20000678534,,,,,,2017_May_12_0909,60.0001710472,KRITL,001,31053,
increase,DIVIDE,triple,3,3,0,3,2,,,,,,,,,,,,,0,2,2,4,,,,,['space'],[1.7667735037393868],3,1,5.18336029444,,,,,,2017_May_12_0909,60.0001710472,KRITL,001,31053,
ADD,triple ,half,8,2,0,3,4,,,,,,,,,,,,,0,3,3,3,,,,,['space'],[5.066648401319981],8,1,3.68336286023,,,,,,2017_May_12_0909,60.0001710472,KRITL,001,31053,
increase,DIVIDE,double,9,8,triple,4,8,,,,,,,,,,,,,0,4,4,5,,,,,['space'],[9.583209076430649],6,0,5.55002699932,,,,,,2017_May_12_0909,60.0001710472,KRITL,001,31053,
0,decrease,TIMES,8,3,0,2,3,,,,,,,,,,,,,0,5,5,1,,,,,['space'],[4.966654559131712],8,1,3.58335333783,,,,,,2017_May_12_0909,60.0001710472,KRITL,001,31053,
,,,,,,,,"('ADD', 'DECREASE', 'x', 'y')",decrease,2,"(2, 7)",7,7,5,3,0,ADD,0,BUxy,,,,,0,0,0,0,,,,,,space,3.11667112354,7,1,1.8834241,2017_May_12_0909,60.0001710472,KRITL,001,31053,
,,,,,,,,"('INCREASE', 'HALF', 'THIRD', 'TIMES', 'x', 'y')",half,4,"(12, 4, 2, 3)",3,3,4,3,third,increase,TIMES,UUUBxy,,,,,0,1,1,16,,,,,,space,4.78337779967,3,1,4.48335493449,2017_May_12_0909,60.0001710472,KRITL,001,31053,
,,,,,,,,"('DOUBLE', 'SUBTRACT', 'INCREASE', 'x', 'y')",SUBTRACT,3,"(4, 1, 2)",2,2,3,3,increase,double,0,UBUxy,,,,,0,2,2,6,,,,,,space,6.96663203649,2,1,4.06664783088,2017_May_12_0909,60.0001710472,KRITL,001,31053,
,,,,,,,,"('HALF', 'ADD', 'x', 'y')",ADD,2,"(12, 6)",6,6,8,4,0,half,0,UBxy,,,,,0,3,3,3,,,,,,space,2.3333942499,6,1,2.45008076914,2017_May_12_0909,60.0001710472,KRITL,001,31053,
,,,,,,,,"('DECREASE', 'SUBTRACT', 'DOUBLE', 'THIRD', 'x', 'y')",SUBTRACT,4,"(3, 6, 4, 3)",3,3,2,9,double,decrease,third,UBUUxy,,,,,0,4,4,13,,,,,,space,6.10003290046,3,1,10.5499061164,2017_May_12_0909,60.0001710472,KRITL,001,31053,
,,,,,,,,"('DECREASE', 'DOUBLE', 'TIMES', 'THIRD', 'x', 'y')",double,4,"(1, 3, 6, 5)",5,5,3,3,TIMES,decrease,third,UUBUxy,,,,,0,5,5,14,,,,,,space,4.88335710112,5,1,6.18333035894,2017_May_12_0909,60.0001710472,KRITL,001,31053,
,,,,,,,,"('HALF', 'INCREASE', 'TIMES', 'x', 'y')",increase,3,"(9, 10, 5)",5,5,3,3,TIMES,half,0,UUBxy,,,,,0,6,6,9,,,,,,space,2.26672988292,5,1,4.21671799431,2017_May_12_0909,60.0001710472,KRITL,001,31053,
,,,,,,,,"('ADD', 'TRIPLE', 'HALF', 'x', 'y')",triple,3,"(2, 6, 8)",8,8,2,4,half,ADD,0,BUUxy,,,,,0,7,7,5,,,,,,space,2.36671773763,8,1,3.95005653566,2017_May_12_0909,60.0001710472,KRITL,001,31053,
,,,,,,,,"('THIRD', 'HALF', 'INCREASE', 'SUBTRACT', 'x', 'y')",half,4,"(5, 6, 3, 1)",1,1,2,7,increase,third,SUBTRACT,UUUBxy,,,,,0,8,8,17,,,,,,space,3.0666940175,1,1,5.45006679883,2017_May_12_0909,60.0001710472,KRITL,001,31053,
,,,,,,,,"('DECREASE', 'TRIPLE', 'SUBTRACT', 'DOUBLE', 'x', 'y')",triple,4,"(6, 3, 9, 8)",8,8,3,3,SUBTRACT,decrease,double,UUBUxy,,,,,0,9,9,15,,,,,,space,3.83337571844,8,1,4.1000309051,2017_May_12_0909,60.0001710472,KRITL,001,31053,
,,,,,,,,"('ADD', 'DOUBLE', 'DECREASE', 'x', 'y')",double,3,"(1, 2, 7)",7,7,5,2,decrease,ADD,0,BUUxy,,,,,0,10,10,4,,,,,,space,2.1333928816,7,1,2.88338732207,2017_May_12_0909,60.0001710472,KRITL,001,31053,
,,,,,,,,"('ADD', 'DECREASE', 'THIRD', 'DOUBLE', 'x', 'y')",decrease,4,"(18, 6, 5, 9)",9,9,4,9,third,ADD,double,BUUUxy,,,,,0,11,11,10,,,,,,space,2.75004376331,9,1,4.20007207384,2017_May_12_0909,60.0001710472,KRITL,001,31053,
,,,,,,,,"('DIVIDE', 'DECREASE', 'x', 'y')",decrease,2,"(8, 2)",2,2,4,9,0,DIVIDE,0,BUxy,,,,,0,12,12,1,,,,,,space,2.70004812535,2,1,1.36675023939,2017_May_12_0909,60.0001710472,KRITL,001,31053,
,,,,,,,,"('DECREASE', 'ADD', 'THIRD', 'HALF', 'x', 'y')",ADD,4,"(3, 1, 7, 6)",6,6,6,6,third,decrease,half,UBUUxy,,,,,0,13,13,12,,,,,,space,2.03339248197,6,1,4.31669472996,2017_May_12_0909,60.0001710472,KRITL,001,31053,
,,,,,,,,"('DOUBLE', 'THIRD', 'ADD', 'x', 'y')",third,3,"(9, 3, 6)",6,6,4,5,ADD,double,0,UUBxy,,,,,0,14,14,8,,,,,,space,0.933426294941,6,1,2.7000777754,2017_May_12_0909,60.0001710472,KRITL,001,31053,
,,,,,,,,"('ADD', 'TRIPLE', 'DOUBLE', 'DECREASE', 'x', 'y')",triple,4,"(1, 2, 6, 8)",8,8,2,2,double,ADD,decrease,BUUUxy,,,,,0,15,15,11,,,,,,space,3.48336177692,8,1,4.36672229925,2017_May_12_0909,60.0001710472,KRITL,001,31053,
,,,,,,,,"('INCREASE', 'ADD', 'HALF', 'x', 'y')",ADD,3,"(1, 4, 5)",5,5,3,2,half,increase,0,UBUxy,,,,,0,16,16,7,,,,,,space,0.933404912706,3,0,3.65011406876,2017_May_12_0909,60.0001710472,KRITL,001,31053,
,,,,,,,,"('DECREASE', 'TIMES', 'x', 'y')",TIMES,2,"(9, 8)",8,8,3,3,0,decrease,0,UBxy,,,,,0,17,17,2,,,,,,space,2.28339462075,8,1,2.96673182165,2017_May_12_0909,60.0001710472,KRITL,001,31053,
,,,,,,,,"('HALF', 'SUBTRACT', 'TRIPLE', 'x', 'y')",SUBTRACT,3,"(9, 2, 1)",1,1,7,3,triple,half,0,UBUxy,,,,,0,0,0,6,,,,,,space,4.00002366351,1,1,4.89999617962,2017_May_12_0909,60.0001710472,KRITL,001,31053,
,,,,,,,,"('ADD', 'THIRD', 'INCREASE', 'HALF', 'x', 'y')",third,4,"(2, 3, 1, 7)",7,7,6,4,increase,ADD,half,BUUUxy,,,,,0,1,1,10,,,,,,space,2.06673877826,7,1,4.61670305533,2017_May_12_0909,60.0001710472,KRITL,001,31053,
,,,,,,,,"('DOUBLE', 'DECREASE', 'TRIPLE', 'DIVIDE', 'x', 'y')",decrease,4,"(1, 3, 2, 4)",4,4,4,4,triple,double,DIVIDE,UUUBxy,,,,,0,2,2,17,,,,,,space,2.30003512464,6,0,15.7831189279,2017_May_12_0909,60.0001710472,KRITL,001,31053,
,,,,,,,,"('DOUBLE', 'DECREASE', 'SUBTRACT', 'x', 'y')",decrease,3,"(5, 4, 8)",8,8,2,7,SUBTRACT,double,0,UUBxy,,,,,0,3,3,8,,,,,,space,2.10008136788,8,1,7.71661820868,2017_May_12_0909,60.0001710472,KRITL,001,31053,
,,,,,,,,"('DOUBLE', 'TRIPLE', 'SUBTRACT', 'x', 'y')",triple,3,"(1, 3, 6)",6,6,3,4,SUBTRACT,double,0,UUBxy,,,,,0,4,4,9,,,,,,space,1.66675542807,6,1,9.1667884998,2017_May_12_0909,60.0001710472,KRITL,001,31053,
,,,,,,,,"('DOUBLE', 'SUBTRACT', 'x', 'y')",SUBTRACT,2,"(1, 2)",2,2,7,8,0,double,0,UBxy,,,,,0,5,5,2,,,,,,space,3.46666567819,2,1,1.0834420044,2017_May_12_0909,60.0001710472,KRITL,001,31053,
,,,,,,,,"('ADD', 'DOUBLE', 'x', 'y')",double,2,"(4, 8)",8,8,4,2,0,ADD,0,BUxy,,,,,0,6,6,0,,,,,,space,3.88335282449,8,1,1.75007940084,2017_May_12_0909,60.0001710472,KRITL,001,31053,
,,,,,,,,"('DECREASE', 'HALF', 'TRIPLE', 'DIVIDE', 'x', 'y')",half,4,"(4, 12, 6, 5)",5,5,2,8,triple,decrease,DIVIDE,UUUBxy,,,,,0,7,7,16,,,,,,space,11.5332291191,5,1,10.2332427474,2017_May_12_0909,60.0001710472,KRITL,001,31053,
,,,,,,,,"('INCREASE', 'DIVIDE', 'THIRD', 'x', 'y')",DIVIDE,3,"(3, 1, 2)",2,2,3,9,third,increase,0,UBUxy,,,,,0,8,8,7,,,,,,space,2.70005354192,2,1,9.71656175889,2017_May_12_0909,60.0001710472,KRITL,001,31053,
,,,,,,,,"('SUBTRACT', 'HALF', 'TRIPLE', 'x', 'y')",half,3,"(12, 6, 2)",2,2,4,4,triple,SUBTRACT,0,BUUxy,,,,,0,9,9,5,,,,,,space,1.43340576813,2,1,5.31668332592,2017_May_12_0909,60.0001710472,KRITL,001,31053,
,,,,,,,,"('HALF', 'TIMES', 'x', 'y')",TIMES,2,"(16, 8)",8,8,4,4,0,half,0,UBxy,,,,,0,10,10,3,,,,,,space,0.666790210176,8,1,3.66671722475,2017_May_12_0909,60.0001710472,KRITL,001,31053,
,,,,,,,,"('DECREASE', 'ADD', 'DOUBLE', 'THIRD', 'x', 'y')",ADD,4,"(3, 6, 10, 9)",9,9,4,9,double,decrease ,third,UBUUxy,,,,,0,11,11,12,,,,,,space,2.31675289059,9,1,7.44992481871,2017_May_12_0909,60.0001710472,KRITL,001,31053,
,,,,,,,,"('DIVIDE', 'DOUBLE', 'x', 'y')",double,2,"(12, 2)",2,2,6,6,0,DIVIDE,0,BUxy,,,,,0,12,12,1,,,,,,space,0.883435219061,2,1,1.96674664738,2017_May_12_0909,60.0001710472,KRITL,001,31053,
,,,,,,,,"('DIVIDE', 'INCREASE', 'DOUBLE', 'THIRD', 'x', 'y')",increase,4,"(2, 4, 5, 1)",1,1,5,6,double,DIVIDE,third,BUUUxy,,,,,0,13,13,11,,,,,,space,2.80004253704,1,1,4.91670567822,2017_May_12_0909,60.0001710472,KRITL,001,31053,
,,,,,,,,"('DECREASE', 'TIMES', 'DOUBLE', 'THIRD', 'x', 'y')",TIMES,4,"(1, 2, 8, 7)",7,7,4,3,double,decrease,third,UBUUxy,,,,,0,14,14,13,,,,,,space,1.7000655164,7,1,4.58338640956,2017_May_12_0909,60.0001710472,KRITL,001,31053,
,,,,,,,,"('DOUBLE', 'TRIPLE', 'DIVIDE', 'DECREASE', 'x', 'y')",triple,4,"(8, 1, 3, 6)",6,6,8,9,DIVIDE,double,decrease,UUBUxy,,,,,0,15,15,15,,,,,,space,2.3167503248,6,1,3.13338546874,2017_May_12_0909,60.0001710472,KRITL,001,31053,
,,,,,,,,"('DECREASE', 'THIRD', 'TIMES', 'HALF', 'x', 'y')",third,4,"(2, 12, 4, 3)",3,3,6,4,TIMES,decrease,half,UUBUxy,,,,,0,16,16,14,,,,,,space,3.41670311196,3,1,6.66668757424,2017_May_12_0909,60.0001710472,KRITL,001,31053,
,,,,,,,,"('DIVIDE', 'DOUBLE', 'THIRD', 'x', 'y')",double,3,"(2, 4, 1)",1,1,4,6,third,DIVIDE,0,BUUxy,,,,,0,17,17,4,,,,,,space,1.49999714876,1,1,9.18327875575,2017_May_12_0909,60.0001710472,KRITL,001,31053,
,,,,,,,,"('THIRD', 'DOUBLE', 'ADD', 'INCREASE', 'x', 'y')",double,4,"(10, 12, 24, 8)",8,8,2,9,ADD,third,increase,UUBUxy,,,,,0,0,0,14,,,,,,space,4.51667300565,6,0,10.5165940323,2017_May_12_0909,60.0001710472,KRITL,001,31053,
,,,,,,,,"('TRIPLE', 'DECREASE', 'HALF', 'TIMES', 'x', 'y')",decrease,4,"(6, 3, 2, 6)",6,6,2,3,half,triple,TIMES,UUUBxy,,,,,0,1,1,17,,,,,,space,5.18335630326,6,1,19.0664354307,2017_May_12_0909,60.0001710472,KRITL,001,31053,
,,,,,,,,"('TRIPLE', 'HALF', 'ADD', 'DECREASE', 'x', 'y')",half,4,"(1, 4, 2, 6)",6,6,3,2,ADD,triple,decrease,UUBUxy,,,,,0,2,2,15,,,,,,space,2.28338720789,6,1,6.25000156835,2017_May_12_0909,60.0001710472,KRITL,001,31053,
,,,,,,,,"('THIRD', 'ADD', 'x', 'y')",ADD,2,"(9, 3)",3,3,5,4,0,third,0,UBxy,,,,,0,3,3,2,,,,,,space,1.00007868791,3,1,2.60006483225,2017_May_12_0909,60.0001710472,KRITL,001,31053,
,,,,,,,,"('TIMES', 'THIRD', 'HALF', 'x', 'y')",third,3,"(3, 1, 5)",5,5,5,6,half,TIMES,0,BUUxy,,,,,0,4,4,5,,,,,,space,1.78325606138,5,1,4.7833333239,2017_May_12_0909,60.0001710472,KRITL,001,31053,
,,,,,,,,"('TIMES', 'DECREASE', 'HALF', 'x', 'y')",decrease,3,"(4, 3, 9)",9,9,3,8,half,TIMES,0,BUUxy,,,,,0,5,5,4,,,,,,space,1.30007218756,9,1,3.31672295509,2017_May_12_0909,60.0001710472,KRITL,001,31053,
,,,,,,,,"('INCREASE', 'DIVIDE', 'TRIPLE', 'DOUBLE', 'x', 'y')",DIVIDE,4,"(6, 18, 3, 4)",4,4,6,3,triple,increase,double,UBUUxy,,,,,0,6,6,12,,,,,,space,4.43335359497,4,1,6.53327188455,2017_May_12_0909,60.0001710472,KRITL,001,31053,
,,,,,,,,"('TIMES', 'INCREASE', 'THIRD', 'DOUBLE', 'x', 'y')",increase,4,"(6, 2, 3, 9)",9,9,3,3,third,TIMES,double,BUUUxy,,,,,0,7,7,11,,,,,,space,2.06674619066,7,0,5.20004726993,2017_May_12_0909,60.0001710472,KRITL,001,31053,
,,,,,,,,"('THIRD', 'ADD', 'INCREASE', 'x', 'y')",ADD,3,"(8, 15, 5)",5,5,7,7,increase,third,0,UBUxy,,,,,0,8,8,6,,,,,,space,1.25008823862,5,1,7.71662875777,2017_May_12_0909,60.0001710472,KRITL,001,31053,
,,,,,,,,"('THIRD', 'TIMES', 'DECREASE', 'x', 'y')",TIMES,3,"(3, 15, 5)",5,5,5,4,decrease,third,0,UBUxy,,,,,0,9,9,7,,,,,,space,1.28343396494,5,1,7.58330316003,2017_May_12_0909,60.0001710472,KRITL,001,31053,
,,,,,,,,"('SUBTRACT', 'HALF', 'INCREASE', 'TRIPLE', 'x', 'y')",half,4,"(15, 16, 8, 3)",3,3,5,5,increase,SUBTRACT,triple,BUUUxy,,,,,0,10,10,10,,,,,,space,4.41668971255,3,1,9.33323145704,2017_May_12_0909,60.0001710472,KRITL,001,31053,
,,,,,,,,"('TRIPLE', 'SUBTRACT', 'DOUBLE', 'DECREASE', 'x', 'y')",SUBTRACT,4,"(2, 4, 1, 3)",3,3,3,3,double,triple,decrease,UBUUxy,,,,,0,11,11,13,,,,,,space,3.68335288158,3,1,4.90004036995,2017_May_12_0909,60.0001710472,KRITL,001,31053,
,,,,,,,,"('THIRD', 'SUBTRACT', 'x', 'y')",SUBTRACT,2,"(3, 1)",1,1,2,5,0,third,0,UBxy,,,,,0,12,12,3,,,,,,space,0.733408106025,1,1,3.36670804443,2017_May_12_0909,60.0001710472,KRITL,001,31053,
,,,,,,,,"('TRIPLE', 'HALF', 'DIVIDE', 'x', 'y')",half,3,"(2, 1, 3)",3,3,2,4,DIVIDE,triple,0,UUBxy,,,,,0,13,13,9,,,,,,space,1.00012972113,3,1,4.23338586837,2017_May_12_0909,60.0001710472,KRITL,001,31053,
,,,,,,,,"('TIMES', 'INCREASE', 'x', 'y')",increase,2,"(3, 6)",6,6,2,2,0,TIMES,0,BUxy,,,,,0,14,14,1,,,,,,space,0.600037462544,6,1,2.0001003556,2017_May_12_0909,60.0001710472,KRITL,001,31053,
,,,,,,,,"('TIMES', 'DECREASE', 'x', 'y')",decrease,2,"(2, 4)",4,4,2,3,0,TIMES,0,BUxy,,,,,0,15,15,0,,,,,,space,0.933423159178,4,1,1.80011780374,2017_May_12_0909,60.0001710472,KRITL,001,31053,
,,,,,,,,"('THIRD', 'INCREASE', 'HALF', 'DIVIDE', 'x', 'y')",increase,4,"(4, 2, 3, 1)",1,1,2,8,half,third,DIVIDE,UUUBxy,,,,,0,16,16,16,,,,,,space,2.73340553977,1,1,9.58324471442,2017_May_12_0909,60.0001710472,KRITL,001,31053,
,,,,,,,,"('THIRD', 'DECREASE', 'TIMES', 'x', 'y')",decrease,3,"(25, 24, 8)",8,8,5,5,TIMES,third,0,UUBxy,,,,,0,17,17,8,,,,,,space,0.850045302417,8,1,3.4833560749,2017_May_12_0909,60.0001710472,KRITL,001,31053,
,,,,,,,,"('THIRD', 'HALF', 'ADD', 'x', 'y')",half,3,"(6, 3, 1)",1,1,3,3,ADD,third,0,UUBxy,,,,,0,0,0,9,,,,,,space,4.21667979099,1,1,5.39988441998,2017_May_12_0909,60.0001710472,KRITL,001,31053,
,,,,,,,,"('HALF', 'ADD', 'TRIPLE', 'x', 'y')",ADD,3,"(9, 12, 6)",6,6,3,3,triple,half,0,UBUxy,,,,,0,1,1,6,,,,,,space,2.68338167714,6,1,3.76669823704,2017_May_12_0909,60.0001710472,KRITL,001,31053,
,,,,,,,,"('HALF', 'TRIPLE', 'INCREASE', 'DIVIDE', 'x', 'y')",triple,4,"(3, 4, 12, 6)",6,6,3,9,increase,half,DIVIDE,UUUBxy,,,,,0,2,2,16,,,,,,space,4.83334464254,6,1,7.01665019756,2017_May_12_0909,60.0001710472,KRITL,001,31053,
,,,,,,,,"('THIRD', 'DOUBLE', 'INCREASE', 'TIMES', 'x', 'y')",double,4,"(8, 9, 18, 6)",6,6,4,2,increase,third,TIMES,UUUBxy,,,,,0,3,3,17,,,,,,space,3.23336562607,9,0,18.7330676951,2017_May_12_0909,60.0001710472,KRITL,001,31053,
,,,,,,,,"('INCREASE', 'ADD', 'x', 'y')",ADD,2,"(5, 6)",6,6,2,3,0,increase,0,UBxy,,,,,0,4,4,3,,,,,,space,0.650108652189,6,1,4.41669028252,2017_May_12_0909,60.0001710472,KRITL,001,31053,
,,,,,,,,"('THIRD', 'DOUBLE', 'ADD', 'DECREASE', 'x', 'y')",double,4,"(5, 12, 24, 8)",8,8,7,6,ADD,third,decrease,UUBUxy,,,,,0,5,5,14,,,,,,space,9.89988185372,8,1,6.43331852695,2017_May_12_0909,60.0001710472,KRITL,001,31053,
,,,,,,,,"('DIVIDE', 'DECREASE', 'TRIPLE', 'x', 'y')",decrease,3,"(9, 8, 4)",4,4,2,3,triple,DIVIDE,0,BUUxy,,,,,0,6,6,5,,,,,,space,1.7667370108,4,1,4.88333571889,2017_May_12_0909,60.0001710472,KRITL,001,31053,
,,,,,,,,"('INCREASE', 'SUBTRACT', 'HALF', 'x', 'y')",SUBTRACT,3,"(4, 2, 3)",3,3,2,8,half,increase,0,UBUxy,,,,,0,7,7,7,,,,,,space,2.15006303601,3,1,3.96673353249,2017_May_12_0909,60.0001710472,KRITL,001,31053,
,,,,,,,,"('DOUBLE', 'ADD', 'INCREASE', 'THIRD', 'x', 'y')",ADD,4,"(1, 2, 4, 8)",8,8,2,3,increase,double,third,UBUUxy,,,,,0,8,8,12,,,,,,space,7.5499485964,8,1,5.86668894254,2017_May_12_0909,60.0001710472,KRITL,001,31053,
,,,,,,,,"('THIRD', 'INCREASE', 'DIVIDE', 'DOUBLE', 'x', 'y')",increase,4,"(18, 2, 3, 1)",1,1,9,9,DIVIDE,third,double,UUBUxy,,,,,0,9,9,15,,,,,,space,2.64994728472,1,1,5.5833715843,2017_May_12_0909,60.0001710472,KRITL,001,31053,
,,,,,,,,"('SUBTRACT', 'DECREASE', 'TRIPLE', 'DOUBLE', 'x', 'y')",decrease,4,"(6, 18, 17, 8)",8,8,9,3,triple,SUBTRACT,double,BUUUxy,,,,,0,10,10,11,,,,,,space,3.85004530242,8,1,13.7831970453,2017_May_12_0909,60.0001710472,KRITL,001,31053,
,,,,,,,,"('INCREASE', 'TRIPLE', 'DIVIDE', 'x', 'y')",triple,3,"(2, 6, 7)",7,7,3,6,DIVIDE,increase,0,UUBxy,,,,,0,11,11,8,,,,,,space,5.13335553324,7,1,4.2333707572,2017_May_12_0909,60.0001710472,KRITL,001,31053,
,,,,,,,,"('THIRD', 'TIMES', 'DOUBLE', 'DECREASE', 'x', 'y')",TIMES,4,"(1, 2, 6, 2)",2,2,3,2,double,third,decrease,UBUUxy,,,,,0,12,12,13,,,,,,space,7.81662145909,2,1,4.8667049082,2017_May_12_0909,60.0001710472,KRITL,001,31053,
,,,,,,,,"('ADD', 'DOUBLE', 'DECREASE', 'THIRD', 'x', 'y')",double,4,"(2, 1, 2, 8)",8,8,6,6,decrease,ADD,third,BUUUxy,,,,,0,13,13,10,,,,,,space,3.10002805432,8,1,5.56653920747,2017_May_12_0909,60.0001710472,KRITL,001,31053,
,,,,,,,,"('DIVIDE', 'INCREASE', 'x', 'y')",increase,2,"(4, 2)",2,2,2,3,0,DIVIDE,0,BUxy,,,,,0,14,14,0,,,,,,space,0.616755228955,2,1,1.76674499316,2017_May_12_0909,60.0001710472,KRITL,001,31053,
,,,,,,,,"('SUBTRACT', 'DECREASE', 'x', 'y')",decrease,2,"(5, 3)",3,3,2,6,0,SUBTRACT,0,BUxy,,,,,0,15,15,1,,,,,,space,1.03341557551,3,1,3.50006015599,2017_May_12_0909,60.0001710472,KRITL,001,31053,
,,,,,,,,"('DECREASE', 'DIVIDE', 'x', 'y')",DIVIDE,2,"(2, 1)",1,1,4,8,0,decrease,0,UBxy,,,,,0,16,16,2,,,,,,space,1.0333967586,1,1,2.15000202414,2017_May_12_0909,60.0001710472,KRITL,001,31053,
,,,,,,,,"('ADD', 'HALF', 'THIRD', 'x', 'y')",half,3,"(2, 1, 9)",9,9,8,6,third,ADD,0,BUUxy,,,,,0,17,17,4,,,,,,space,1.16675286228,9,1,2.63340457063,2017_May_12_0909,60.0001710472,KRITL,001,31053,
,,,,,,,,"('HALF', 'TRIPLE', 'INCREASE', 'SUBTRACT', 'x', 'y')",triple,4,"(1, 2, 6, 3)",3,3,2,3,increase,half,SUBTRACT,UUUBxy,,,,,0,0,0,17,,,,,,space,6.71665042546,3,1,4.38337819884,2017_May_12_0909,60.0001710472,KRITL,001,31053,
,,,,,,,,"('TIMES', 'HALF', 'INCREASE', 'x', 'y')",half,3,"(6, 3, 9)",9,9,3,5,increase,TIMES,0,BUUxy,,,,,0,1,1,5,,,,,,space,1.73328893352,6,0,3.75004746951,2017_May_12_0909,60.0001710472,KRITL,001,31053,
,,,,,,,,"('SUBTRACT', 'TRIPLE', 'DECREASE', 'DOUBLE', 'x', 'y')",triple,4,"(4, 3, 9, 1)",1,1,8,2,decrease,SUBTRACT,double,BUUUxy,,,,,0,2,2,11,,,,,,space,4.70000621537,1,1,14.7831634036,2017_May_12_0909,60.0001710472,KRITL,001,31053,
,,,,,,,,"('DIVIDE', 'THIRD', 'x', 'y')",third,2,"(3, 1)",1,1,3,9,0,DIVIDE,0,BUxy,,,,,0,3,3,0,,,,,,space,0.816757737659,1,1,3.31681618327,2017_May_12_0909,60.0001710472,KRITL,001,31053,
,,,,,,,,"('THIRD', 'DIVIDE', 'DECREASE', 'x', 'y')",DIVIDE,3,"(6, 3, 1)",1,1,2,7,decrease,third,0,UBUxy,,,,,0,4,4,6,,,,,,space,1.65007472504,1,1,5.00002309354,2017_May_12_0909,60.0001710472,KRITL,001,31053,
,,,,,,,,"('INCREASE', 'ADD', 'HALF', 'TRIPLE', 'x', 'y')",ADD,4,"(6, 3, 6, 7)",7,7,3,2,half,increase,triple,UBUUxy,,,,,0,5,5,13,,,,,,space,3.75002608681,7,1,9.51662710449,2017_May_12_0909,60.0001710472,KRITL,001,31053,
,,,,,,,,"('SUBTRACT', 'TRIPLE', 'DECREASE', 'x', 'y')",triple,3,"(4, 12, 3)",3,3,9,5,decrease,SUBTRACT,0,BUUxy,,,,,0,6,6,4,,,,,,space,2.15006189561,3,1,3.70004470414,2017_May_12_0909,60.0001710472,KRITL,001,31053,
,,,,,,,,"('DOUBLE', 'DIVIDE', 'TRIPLE', 'INCREASE', 'x', 'y')",DIVIDE,4,"(5, 15, 3, 6)",6,6,5,4,triple,double,increase,UBUUxy,,,,,0,7,7,12,,,,,,space,2.46672754502,6,1,3.61671018228,2017_May_12_0909,60.0001710472,KRITL,001,31053,
,,,,,,,,"('DECREASE', 'TRIPLE', 'DIVIDE', 'DOUBLE', 'x', 'y')",triple,4,"(6, 2, 6, 5)",5,5,3,3,DIVIDE,decrease,double,UUBUxy,,,,,0,8,8,14,,,,,,space,4.71668891376,5,1,3.78339290991,2017_May_12_0909,60.0001710472,KRITL,001,31053,
,,,,,,,,"('THIRD', 'DIVIDE', 'x', 'y')",DIVIDE,2,"(3, 1)",1,1,2,6,0,third,0,UBxy,,,,,0,9,9,3,,,,,,space,0.849933257792,1,1,1.95008647116,2017_May_12_0909,60.0001710472,KRITL,001,31053,
,,,,,,,,"('TIMES', 'DOUBLE', 'x', 'y')",double,2,"(4, 8)",8,8,2,2,0,TIMES,0,BUxy,,,,,0,10,10,1,,,,,,space,0.816629726905,8,1,1.95010044146,2017_May_12_0909,60.0001710472,KRITL,001,31053,
,,,,,,,,"('THIRD', 'TIMES', 'HALF', 'x', 'y')",TIMES,3,"(3, 18, 6)",6,6,6,6,half,third,0,UBUxy,,,,,0,11,11,7,,,,,,space,0.900094824843,6,1,3.91688443627,2017_May_12_0909,60.0001710472,KRITL,001,31053,
,,,,,,,,"('INCREASE', 'SUBTRACT', 'x', 'y')",SUBTRACT,2,"(3, 4)",4,4,3,6,0,increase,0,UBxy,,,,,0,12,12,2,,,,,,space,1.31676743086,4,1,3.88337192638,2017_May_12_0909,60.0001710472,KRITL,001,31053,
,,,,,,,,"('SUBTRACT', 'DOUBLE', 'TRIPLE', 'DECREASE', 'x', 'y')",double,4,"(2, 6, 12, 8)",8,8,4,3,triple,SUBTRACT,decrease,BUUUxy,,,,,0,13,13,10,,,,,,space,4.11670105904,8,1,5.78334729373,2017_May_12_0909,60.0001710472,KRITL,001,31053,
,,,,,,,,"('DECREASE', 'TRIPLE', 'HALF', 'SUBTRACT', 'x', 'y')",triple,4,"(4, 2, 6, 5)",5,5,2,6,half,decrease,SUBTRACT,UUUBxy,,,,,0,14,14,16,,,,,,space,4.48334695166,5,1,6.81665880745,2017_May_12_0909,60.0001710472,KRITL,001,31053,
,,,,,,,,"('DOUBLE', 'DECREASE', 'ADD', 'x', 'y')",decrease,3,"(4, 3, 6)",6,6,2,2,ADD,double,0,UUBxy,,,,,0,15,15,8,,,,,,space,1.08329175645,6,1,3.8000488095,2017_May_12_0909,60.0001710472,KRITL,001,31053,
,,,,,,,,"('DOUBLE', 'THIRD', 'TIMES', 'x', 'y')",third,3,"(12, 4, 8)",8,8,6,2,TIMES,double,0,UUBxy,,,,,0,16,16,9,,,,,,space,0.866801272612,8,1,5.64998748386,2017_May_12_0909,60.0001710472,KRITL,001,31053,
,,,,,,,,"('THIRD', 'DECREASE', 'TIMES', 'HALF', 'x', 'y')",decrease,4,"(4, 16, 15, 5)",5,5,4,8,TIMES,third,half,UUBUxy,,,,,0,17,17,15,,,,,,space,2.21673395997,5,1,6.13333700132,2017_May_12_0909,60.0001710472,KRITL,001,31053,
,,,,,,,,"('THIRD', 'INCREASE', 'ADD', 'DOUBLE', 'x', 'y')",increase,4,"(16, 20, 21, 7)",7,7,4,8,ADD,third,double,UUBUxy,,,,,0,0,0,14,,,,,,space,6.99996721325,7,1,5.45001491113,2017_May_12_0909,60.0001710472,KRITL,001,31053,
,,,,,,,,"('DIVIDE', 'TRIPLE', 'HALF', 'x', 'y')",triple,3,"(4, 12, 4)",4,4,3,8,half,DIVIDE,0,BUUxy,,,,,0,1,1,4,,,,,,space,1.0500848745,4,1,3.31671582768,2017_May_12_0909,60.0001710472,KRITL,001,31053,
,,,,,,,,"('TIMES', 'THIRD', 'DOUBLE', 'x', 'y')",third,3,"(6, 2, 4)",4,4,2,3,double,TIMES,0,BUUxy,,,,,0,2,2,5,,,,,,space,1.81675944803,9,0,8.06663927808,2017_May_12_0909,60.0001710472,KRITL,001,31053,
,,,,,,,,"('DECREASE', 'TRIPLE', 'DIVIDE', 'x', 'y')",triple,3,"(2, 6, 5)",5,5,4,8,DIVIDE,decrease,0,UUBxy,,,,,0,3,3,8,,,,,,space,1.43341432093,5,1,2.91673675412,2017_May_12_0909,60.0001710472,KRITL,001,31053,
,,,,,,,,"('DIVIDE', 'DOUBLE', 'INCREASE', 'THIRD', 'x', 'y')",double,4,"(2, 3, 6, 2)",2,2,3,6,increase,DIVIDE,third,BUUUxy,,,,,0,4,4,10,,,,,,space,2.46672412381,2,1,8.99994754139,2017_May_12_0909,60.0001710472,KRITL,001,31053,
,,,,,,,,"('DOUBLE', 'ADD', 'x', 'y')",ADD,2,"(4, 8)",8,8,2,2,0,double,0,UBxy,,,,,0,5,5,2,,,,,,space,0.750090234447,8,1,1.88343037246,2017_May_12_0909,60.0001710472,KRITL,001,31053,
,,,,,,,,"('THIRD', 'TIMES', 'HALF', 'INCREASE', 'x', 'y')",TIMES,4,"(8, 4, 12, 4)",4,4,3,7,half,third,increase,UBUUxy,,,,,0,6,6,13,,,,,,space,1.63342823414,4,1,5.80003027758,2017_May_12_0909,60.0001710472,KRITL,001,31053,
,,,,,,,,"('INCREASE', 'SUBTRACT', 'THIRD', 'x', 'y')",SUBTRACT,3,"(3, 1, 2)",2,2,2,9,third,increase,0,UBUxy,,,,,0,7,7,7,,,,,,space,2.5332738799,2,1,3.65002397681,2017_May_12_0909,60.0001710472,KRITL,001,31053,
,,,,,,,,"('TRIPLE', 'DOUBLE', 'SUBTRACT', 'DECREASE', 'x', 'y')",double,4,"(4, 1, 2, 6)",6,6,3,5,SUBTRACT,triple,decrease,UUBUxy,,,,,0,8,8,15,,,,,,space,2.30005194526,6,1,2.38338105008,2017_May_12_0909,60.0001710472,KRITL,001,31053,
,,,,,,,,"('THIRD', 'INCREASE', 'SUBTRACT', 'x', 'y')",increase,3,"(2, 3, 1)",1,1,6,8,SUBTRACT,third,0,UUBxy,,,,,0,9,9,9,,,,,,space,2.2167345304,1,1,2.06675959053,2017_May_12_0909,60.0001710472,KRITL,001,31053,
,,,,,,,,"('SUBTRACT', 'INCREASE', 'x', 'y')",increase,2,"(6, 2)",2,2,4,5,0,SUBTRACT,0,BUxy,,,,,0,10,10,1,,,,,,space,0.700096022338,2,1,1.20012766868,2017_May_12_0909,60.0001710472,KRITL,001,31053,
,,,,,,,,"('ADD', 'THIRD', 'x', 'y')",third,2,"(1, 7)",7,7,6,3,0,ADD,0,BUxy,,,,,0,11,11,0,,,,,,space,0.666790495627,7,1,1.45009816019,2017_May_12_0909,60.0001710472,KRITL,001,31053,
,,,,,,,,"('TIMES', 'INCREASE', 'HALF', 'TRIPLE', 'x', 'y')",increase,4,"(6, 3, 4, 8)",8,8,2,2,half,TIMES,triple,BUUUxy,,,,,0,12,12,11,,,,,,space,3.08337443555,8,1,12.3665569411,2017_May_12_0909,60.0001710472,KRITL,001,31053,
,,,,,,,,"('INCREASE', 'ADD', 'TRIPLE', 'x', 'y')",ADD,3,"(6, 8, 9)",9,9,2,2,triple,increase,0,UBUxy,,,,,0,13,13,6,,,,,,space,0.650098673534,9,1,2.63340656646,2017_May_12_0909,60.0001710472,KRITL,001,31053,
,,,,,,,,"('DOUBLE', 'TIMES', 'x', 'y')",TIMES,2,"(4, 8)",8,8,2,2,0,double,0,UBxy,,,,,0,14,14,3,,,,,,space,0.65009610774,8,1,3.20027278503,2017_May_12_0909,60.0001710472,KRITL,001,31053,
,,,,,,,,"('TRIPLE', 'DECREASE', 'HALF', 'SUBTRACT', 'x', 'y')",decrease,4,"(4, 2, 1, 3)",3,3,5,9,half,triple,SUBTRACT,UUUBxy,,,,,0,15,15,17,,,,,,space,3.46671471559,3,1,4.18335316703,2017_May_12_0909,60.0001710472,KRITL,001,31053,
,,,,,,,,"('INCREASE', 'DIVIDE', 'TRIPLE', 'HALF', 'x', 'y')",DIVIDE,4,"(2, 6, 2, 3)",3,3,3,4,triple,increase,half,UBUUxy,,,,,0,16,16,12,,,,,,space,1.75007341336,3,1,6.14998463308,2017_May_12_0909,60.0001710472,KRITL,001,31053,
,,,,,,,,"('DECREASE', 'TRIPLE', 'HALF', 'ADD', 'x', 'y')",triple,4,"(6, 3, 9, 8)",8,8,2,4,half,decrease,ADD,UUUBxy,,,,,0,17,17,16,,,,,,space,2.36673826538,8,1,5.60001180321,2017_May_12_0909,60.0001710472,KRITL,001,31053,
,,,,,,,,"('INCREASE', 'DIVIDE', 'TRIPLE', 'x', 'y')",DIVIDE,3,"(6, 2, 3)",3,3,3,2,triple,increase,0,UBUxy,,,,,0,0,0,7,,,,,,space,5.58333366597,3,1,4.00006015645,2017_May_12_0909,60.0001710472,KRITL,001,31053,
,,,,,,,,"('DIVIDE', 'DOUBLE', 'INCREASE', 'TRIPLE', 'x', 'y')",double,4,"(9, 10, 20, 5)",5,5,4,3,increase,DIVIDE,triple,BUUUxy,,,,,0,1,1,10,,,,,,space,5.00001282943,5,1,5.95000464749,2017_May_12_0909,60.0001710472,KRITL,001,31053,
,,,,,,,,"('TRIPLE', 'INCREASE', 'SUBTRACT', 'x', 'y')",increase,3,"(1, 2, 6)",6,6,2,3,SUBTRACT,triple,0,UUBxy,,,,,0,2,2,9,,,,,,space,1.05007033469,6,1,10.2499071993,2017_May_12_0909,60.0001710472,KRITL,001,31053,
,,,,,,,,"('DECREASE', 'THIRD', 'DOUBLE', 'ADD', 'x', 'y')",third,4,"(9, 18, 6, 5)",5,5,4,5,double,decrease,ADD,UUUBxy,,,,,0,3,3,16,,,,,,space,2.45023272792,5,1,4.65001884522,2017_May_12_0909,60.0001710472,KRITL,001,31053,
,,,,,,,,"('TIMES', 'HALF', 'INCREASE', 'THIRD', 'x', 'y')",half,4,"(1, 2, 1, 9)",9,9,9,3,increase,TIMES,third,BUUUxy,,,,,0,4,4,11,,,,,,space,2.80002600094,9,1,10.999909908,2017_May_12_0909,60.0001710472,KRITL,001,31053,
,,,,,,,,"('SUBTRACT', 'TRIPLE', 'x', 'y')",triple,2,"(12, 9)",9,9,3,4,0,SUBTRACT,0,BUxy,,,,,0,5,5,1,,,,,,space,0.766762669664,9,1,3.28339604614,2017_May_12_0909,60.0001710472,KRITL,001,31053,
,,,,,,,,"('DOUBLE', 'DIVIDE', 'x', 'y')",DIVIDE,2,"(1, 2)",2,2,8,8,0,double,0,UBxy,,,,,0,6,6,2,,,,,,space,0.683437271975,2,1,3.44992966577,2017_May_12_0909,60.0001710472,KRITL,001,31053,
,,,,,,,,"('INCREASE', 'TIMES', 'TRIPLE', 'HALF', 'x', 'y')",TIMES,4,"(1, 3, 6, 7)",7,7,2,2,triple,increase,half,UBUUxy,,,,,0,7,7,13,,,,,,space,2.23339527659,7,1,8.19994833972,2017_May_12_0909,60.0001710472,KRITL,001,31053,
,,,,,,,,"('TRIPLE', 'INCREASE', 'DIVIDE', 'DOUBLE', 'x', 'y')",increase,4,"(16, 2, 3, 9)",9,9,8,8,DIVIDE,triple,double,UUBUxy,,,,,0,8,8,15,,,,,,space,3.40011620754,9,1,4.35005556652,2017_May_12_0909,60.0001710472,KRITL,001,31053,
,,,,,,,,"('DIVIDE', 'TRIPLE', 'DECREASE', 'x', 'y')",triple,3,"(6, 18, 9)",9,9,2,7,decrease,DIVIDE,0,BUUxy,,,,,0,9,9,4,,,,,,space,1.76675269147,9,1,6.61664061807,2017_May_12_0909,60.0001710472,KRITL,001,31053,
,,,,,,,,"('INCREASE', 'DIVIDE', 'x', 'y')",DIVIDE,2,"(4, 5)",5,5,2,8,0,increase,0,UBxy,,,,,0,10,10,3,,,,,,space,0.666742598638,5,1,2.10007509543,2017_May_12_0909,60.0001710472,KRITL,001,31053,
,,,,,,,,"('ADD', 'HALF', 'x', 'y')",half,2,"(2, 7)",7,7,5,4,0,ADD,0,BUxy,,,,,0,11,11,0,,,,,,space,0.816752605606,7,1,2.20008005667,2017_May_12_0909,60.0001710472,KRITL,001,31053,
,,,,,,,,"('THIRD', 'INCREASE', 'HALF', 'TIMES', 'x', 'y')",increase,4,"(28, 14, 15, 5)",5,5,4,7,half,third,TIMES,UUUBxy,,,,,0,12,12,17,,,,,,space,1.68327675993,5,1,6.91667830851,2017_May_12_0909,60.0001710472,KRITL,001,31053,
,,,,,,,,"('HALF', 'TIMES', 'DECREASE', 'x', 'y')",TIMES,3,"(8, 16, 8)",8,8,2,9,decrease,half,0,UBUxy,,,,,0,13,13,6,,,,,,space,0.883396730293,8,1,11.1832240159,2017_May_12_0909,60.0001710472,KRITL,001,31053,
,,,,,,,,"('SUBTRACT', 'INCREASE', 'HALF', 'x', 'y')",increase,3,"(4, 5, 3)",3,3,2,8,half,SUBTRACT,0,BUUxy,,,,,0,14,14,5,,,,,,space,1.20007834537,3,1,3.80002913764,2017_May_12_0909,60.0001710472,KRITL,001,31053,
,,,,,,,,"('HALF', 'SUBTRACT', 'DECREASE', 'TRIPLE', 'x', 'y')",SUBTRACT,4,"(15, 14, 10, 5)",5,5,4,5,decrease,half,triple,UBUUxy,,,,,0,15,15,12,,,,,,space,5.96664686175,5,1,8.51661427459,2017_May_12_0909,60.0001710472,KRITL,001,31053,
,,,,,,,,"('TRIPLE', 'DOUBLE', 'SUBTRACT', 'INCREASE', 'x', 'y')",double,4,"(5, 1, 2, 6)",6,6,4,4,SUBTRACT,triple,increase,UUBUxy,,,,,0,16,16,14,,,,,,space,4.18356528226,6,1,1.65031649079,2017_May_12_0909,60.0001710472,KRITL,001,31053,
,,,,,,,,"('TRIPLE', 'HALF', 'ADD', 'x', 'y')",half,3,"(6, 3, 9)",9,9,3,3,ADD,triple,0,UUBxy,,,,,0,17,17,8,,,,,,space,1.51674171491,9,1,7.58331370912,2017_May_12_0909,60.0001710472,KRITL,001,31053,
,,,,,,,,"('TRIPLE', 'SUBTRACT', 'x', 'y')",SUBTRACT,2,"(2, 6)",6,6,6,8,0,triple,0,UBxy,,,,,0,0,0,3,,,,,,space,0.86673883535,6,1,4.65004906571,2017_May_12_0909,60.0001710472,KRITL,001,31053,
,,,,,,,,"('INCREASE', 'DIVIDE', 'HALF', 'x', 'y')",DIVIDE,3,"(2, 1, 2)",2,2,2,4,half,increase,0,UBUxy,,,,,0,1,1,7,,,,,,space,1.01676195674,2,1,2.50008952199,2017_May_12_0909,60.0001710472,KRITL,001,31053,
,,,,,,,,"('DECREASE', 'DIVIDE', 'TRIPLE', 'DOUBLE', 'x', 'y')",DIVIDE,4,"(6, 18, 2, 1)",1,1,9,3,triple,decrease,double,UBUUxy,,,,,0,2,2,12,,,,,,space,2.86672258424,1,1,4.51669153711,2017_May_12_0909,60.0001710472,KRITL,001,31053,
,,,,,,,,"('INCREASE', 'TIMES', 'x', 'y')",TIMES,2,"(8, 9)",9,9,4,2,0,increase,0,UBxy,,,,,0,3,3,2,,,,,,space,0.683423016686,9,1,2.3500609831,2017_May_12_0909,60.0001710472,KRITL,001,31053,
,,,,,,,,"('DOUBLE', 'TIMES', 'THIRD', 'x', 'y')",TIMES,3,"(1, 4, 8)",8,8,4,3,third,double,0,UBUxy,,,,,0,4,4,6,,,,,,space,4.81668988336,8,1,2.93339721486,2017_May_12_0909,60.0001710472,KRITL,001,31053,
,,,,,,,,"('TRIPLE', 'HALF', 'TIMES', 'x', 'y')",half,3,"(6, 3, 9)",9,9,3,2,TIMES,triple,0,UUBxy,,,,,0,5,5,9,,,,,,space,1.36675708182,9,1,5.33335319534,2017_May_12_0909,60.0001710472,KRITL,001,31053,
,,,,,,,,"('DIVIDE', 'DECREASE', 'THIRD', 'DOUBLE', 'x', 'y')",decrease,4,"(12, 4, 3, 1)",1,1,3,6,third,DIVIDE,double,BUUUxy,,,,,0,6,6,10,,,,,,space,2.26672988292,1,1,7.01664449507,2017_May_12_0909,60.0001710472,KRITL,001,31053,
,,,,,,,,"('THIRD', 'INCREASE', 'SUBTRACT', 'HALF', 'x', 'y')",increase,4,"(4, 2, 3, 1)",1,1,2,8,SUBTRACT,third,half,UUBUxy,,,,,0,7,7,15,,,,,,space,2.08337671636,1,1,5.85000111163,2017_May_12_0909,60.0001710472,KRITL,001,31053,
,,,,,,,,"('SUBTRACT', 'DOUBLE', 'DECREASE', 'x', 'y')",double,3,"(8, 16, 7)",7,7,9,9,decrease,SUBTRACT,0,BUUxy,,,,,0,8,8,5,,,,,,space,0.783428547904,7,1,6.73331886902,2017_May_12_0909,60.0001710472,KRITL,001,31053,
,,,,,,,,"('INCREASE', 'HALF', 'TIMES', 'TRIPLE', 'x', 'y')",half,4,"(6, 12, 6, 7)",7,7,2,2,TIMES,increase,triple,UUBUxy,,,,,0,9,9,14,,,,,,space,4.2833669656,5,0,12.083195392,2017_May_12_0909,60.0001710472,KRITL,001,31053,
,,,,,,,,"('SUBTRACT', 'THIRD', 'x', 'y')",third,2,"(3, 1)",1,1,2,9,0,SUBTRACT,0,BUxy,,,,,0,10,10,0,,,,,,space,0.683563571423,1,1,4.2336091022,2017_May_12_0909,60.0001710472,KRITL,001,31053,
,,,,,,,,"('TRIPLE', 'SUBTRACT', 'INCREASE', 'HALF', 'x', 'y')",SUBTRACT,4,"(3, 4, 1, 3)",3,3,3,6,increase,triple,half,UBUUxy,,,,,0,11,11,13,,,,,,space,9.2165175681,6,0,8.46662034746,2017_May_12_0909,60.0001710472,KRITL,001,31053,
,,,,,,,,"('DECREASE', 'HALF', 'DIVIDE', 'x', 'y')",half,3,"(4, 2, 1)",1,1,2,8,DIVIDE,decrease,0,UUBxy,,,,,0,12,12,8,,,,,,space,0.799967555329,1,1,3.3667086144,2017_May_12_0909,60.0001710472,KRITL,001,31053,
,,,,,,,,"('TIMES', 'THIRD', 'x', 'y')",third,2,"(1, 4)",4,4,4,3,0,TIMES,0,BUxy,,,,,0,13,13,1,,,,,,space,0.650116065051,4,1,1.21677501453,2017_May_12_0909,60.0001710472,KRITL,001,31053,
,,,,,,,,"('ADD', 'DECREASE', 'HALF', 'x', 'y')",decrease,3,"(3, 2, 6)",6,6,4,6,half,ADD,0,BUUxy,,,,,0,14,14,4,,,,,,space,1.41674673278,5,0,6.29991965881,2017_May_12_0909,60.0001710472,KRITL,001,31053,
,,,,,,,,"('TIMES', 'DECREASE', 'THIRD', 'DOUBLE', 'x', 'y')",decrease,4,"(6, 2, 1, 2)",2,2,2,3,third,TIMES,double,BUUUxy,,,,,0,15,15,11,,,,,,space,1.61674810108,None,0,,2017_May_12_0909,60.0001710472,KRITL,001,31053,
,,,,,,,,"('DECREASE', 'HALF', 'TRIPLE', 'ADD', 'x', 'y')",half,4,"(4, 12, 6, 5)",5,5,2,2,triple,decrease,ADD,UUUBxy,,,,,0,16,16,16,,,,,,space,2.98342849081,5,1,10.1999258166,2017_May_12_0909,60.0001710472,KRITL,001,31053,
,,,,,,,,"('INCREASE', 'TRIPLE', 'HALF', 'ADD', 'x', 'y')",triple,4,"(4, 2, 6, 7)",7,7,2,2,half,increase,ADD,UUUBxy,,,,,0,17,17,17,,,,,,space,4.81666679028,7,1,8.38327755826,2017_May_12_0909,60.0001710472,KRITL,001,31053,
