operationc,operationb,operationa,correctresponse,valuey,operationd,condition,valuex,Rule,Operatora,Length,Intermediate,CorrectResponse,Result,Y,X,Operatorc,Operatorb,Operatord,Structure,practice_trials.thisRepN,practice_trials.thisTrialN,practice_trials.thisN,practice_trials.thisIndex,block.thisRepN,block.thisTrialN,block.thisN,block.thisIndex,practice_encoding.keys,practice_encoding.rt,practice_execution.keys,practice_execution.corr,practice_execution.rt,encoding.keys,encoding.rt,execution.keys,execution.corr,execution.rt,date,frameRate,expName,session,participant,
0,ADD,half,7,5,0,2,4,,,,,,,,,,,,,0,0,0,2,,,,,['space'],[2.967338022601325],7,1,2.67733304962,,,,,,2017_May_12_0918,285.86230387,KRITL,002,31051,
ADD,triple ,half,8,2,0,3,4,,,,,,,,,,,,,0,1,1,3,,,,,['space'],[5.450214194395812],8,1,10.103310258,,,,,,2017_May_12_0918,285.86230387,KRITL,002,31051,
increase,DIVIDE,double,9,8,triple,4,8,,,,,,,,,,,,,0,2,2,5,,,,,['space'],[15.41695028191316],6,0,11.649735726,,,,,,2017_May_12_0918,285.86230387,KRITL,002,31051,
0,ADD,decrease,7,5,0,2,3,,,,,,,,,,,,,0,3,3,0,,,,,['space'],[6.906585274788085],7,1,1.86244383542,,,,,,2017_May_12_0918,285.86230387,KRITL,002,31051,
increase,DIVIDE,triple,3,3,0,3,2,,,,,,,,,,,,,0,4,4,4,,,,,['space'],[5.49573063547723],3,1,4.90210820761,,,,,,2017_May_12_0918,285.86230387,KRITL,002,31051,
0,decrease,TIMES,8,3,0,2,3,,,,,,,,,,,,,0,5,5,1,,,,,['space'],[2.8121269620896783],8,1,2.56800694045,,,,,,2017_May_12_0918,285.86230387,KRITL,002,31051,
,,,,,,,,"('DOUBLE', 'TRIPLE', 'DIVIDE', 'DECREASE', 'x', 'y')",triple,4,"(8, 1, 3, 6)",6,6,8,9,DIVIDE,double,decrease,UUBUxy,,,,,0,0,0,15,,,,,,space,14.2361107855,6,1,6.12056409716,2017_May_12_0918,285.86230387,KRITL,002,31051,
,,,,,,,,"('ADD', 'DOUBLE', 'x', 'y')",double,2,"(4, 8)",8,8,4,2,0,ADD,0,BUxy,,,,,0,1,1,0,,,,,,space,4.54424625303,8,1,1.7321297898,2017_May_12_0918,285.86230387,KRITL,002,31051,
,,,,,,,,"('ADD', 'THIRD', 'INCREASE', 'HALF', 'x', 'y')",third,4,"(2, 3, 1, 7)",7,7,6,4,increase,ADD,half,BUUUxy,,,,,0,2,2,10,,,,,,space,8.49861012489,7,1,3.91085481431,2017_May_12_0918,285.86230387,KRITL,002,31051,
,,,,,,,,"('DOUBLE', 'DECREASE', 'SUBTRACT', 'x', 'y')",decrease,3,"(5, 4, 8)",8,8,2,7,SUBTRACT,double,0,UUBxy,,,,,0,3,3,8,,,,,,space,6.16662857909,2,0,18.0386078361,2017_May_12_0918,285.86230387,KRITL,002,31051,
,,,,,,,,"('INCREASE', 'DIVIDE', 'THIRD', 'x', 'y')",DIVIDE,3,"(3, 1, 2)",2,2,3,9,third,increase,0,UBUxy,,,,,0,4,4,7,,,,,,space,6.05168977525,2,1,4.69483886164,2017_May_12_0918,285.86230387,KRITL,002,31051,
,,,,,,,,"('DIVIDE', 'INCREASE', 'DOUBLE', 'THIRD', 'x', 'y')",increase,4,"(2, 4, 5, 1)",1,1,5,6,double,DIVIDE,third,BUUUxy,,,,,0,5,5,11,,,,,,None,,None,0,,2017_May_12_0918,285.86230387,KRITL,002,31051,
,,,,,,,,"('DIVIDE', 'DOUBLE', 'THIRD', 'x', 'y')",double,3,"(2, 4, 1)",1,1,4,6,third,DIVIDE,0,BUUxy,,,,,0,6,6,4,,,,,,space,4.23829559985,1,1,5.4492675465,2017_May_12_0918,285.86230387,KRITL,002,31051,
,,,,,,,,"('HALF', 'SUBTRACT', 'TRIPLE', 'x', 'y')",SUBTRACT,3,"(9, 2, 1)",1,1,7,3,triple,half,0,UBUxy,,,,,0,7,7,6,,,,,,space,6.05213737697,3,0,12.7264054572,2017_May_12_0918,285.86230387,KRITL,002,31051,
,,,,,,,,"('DECREASE', 'HALF', 'TRIPLE', 'DIVIDE', 'x', 'y')",half,4,"(4, 12, 6, 5)",5,5,2,8,triple,decrease,DIVIDE,UUUBxy,,,,,0,8,8,16,,,,,,space,12.5135640121,5,1,5.2200769147,2017_May_12_0918,285.86230387,KRITL,002,31051,
,,,,,,,,"('DECREASE', 'TIMES', 'DOUBLE', 'THIRD', 'x', 'y')",TIMES,4,"(1, 2, 8, 7)",7,7,4,3,double,decrease,third,UBUUxy,,,,,0,9,9,13,,,,,,space,10.6117119769,7,1,6.42144134754,2017_May_12_0918,285.86230387,KRITL,002,31051,
,,,,,,,,"('SUBTRACT', 'HALF', 'TRIPLE', 'x', 'y')",half,3,"(12, 6, 2)",2,2,4,4,triple,SUBTRACT,0,BUUxy,,,,,0,10,10,5,,,,,,space,4.13376397354,2,1,3.8132275934,2017_May_12_0918,285.86230387,KRITL,002,31051,
,,,,,,,,"('DIVIDE', 'DOUBLE', 'x', 'y')",double,2,"(12, 2)",2,2,6,6,0,DIVIDE,0,BUxy,,,,,0,11,11,1,,,,,,space,2.53384642469,2,1,2.04075240486,2017_May_12_0918,285.86230387,KRITL,002,31051,
,,,,,,,,"('HALF', 'TIMES', 'x', 'y')",TIMES,2,"(16, 8)",8,8,4,4,0,half,0,UBxy,,,,,0,12,12,3,,,,,,space,1.45895800137,6,0,9.66878732131,2017_May_12_0918,285.86230387,KRITL,002,31051,
,,,,,,,,"('DECREASE', 'ADD', 'DOUBLE', 'THIRD', 'x', 'y')",ADD,4,"(3, 6, 10, 9)",9,9,4,9,double,decrease ,third,UBUUxy,,,,,0,13,13,12,,,,,,space,10.1297334582,9,1,8.7896040912,2017_May_12_0918,285.86230387,KRITL,002,31051,
,,,,,,,,"('DOUBLE', 'TRIPLE', 'SUBTRACT', 'x', 'y')",triple,3,"(1, 3, 6)",6,6,3,4,SUBTRACT,double,0,UUBxy,,,,,0,14,14,9,,,,,,space,3.40098255404,6,1,5.65254592293,2017_May_12_0918,285.86230387,KRITL,002,31051,
,,,,,,,,"('DOUBLE', 'DECREASE', 'TRIPLE', 'DIVIDE', 'x', 'y')",decrease,4,"(1, 3, 2, 4)",4,4,4,4,triple,double,DIVIDE,UUUBxy,,,,,0,15,15,17,,,,,,space,10.9944537982,4,1,9.68782596797,2017_May_12_0918,285.86230387,KRITL,002,31051,
,,,,,,,,"('DOUBLE', 'SUBTRACT', 'x', 'y')",SUBTRACT,2,"(1, 2)",2,2,7,8,0,double,0,UBxy,,,,,0,16,16,2,,,,,,space,1.42491157327,2,1,1.84794839876,2017_May_12_0918,285.86230387,KRITL,002,31051,
,,,,,,,,"('DECREASE', 'THIRD', 'TIMES', 'HALF', 'x', 'y')",third,4,"(2, 12, 4, 3)",3,3,6,4,TIMES,decrease,half,UUBUxy,,,,,0,17,17,14,,,,,,space,10.1804244412,3,1,7.04839278082,2017_May_12_0918,285.86230387,KRITL,002,31051,
,,,,,,,,"('DIVIDE', 'DOUBLE', 'INCREASE', 'THIRD', 'x', 'y')",double,4,"(2, 3, 6, 2)",2,2,3,6,increase,DIVIDE,third,BUUUxy,,,,,0,0,0,10,,,,,,space,11.8257975377,7,0,16.7718977508,2017_May_12_0918,285.86230387,KRITL,002,31051,
,,,,,,,,"('DOUBLE', 'TIMES', 'x', 'y')",TIMES,2,"(4, 8)",8,8,2,2,0,double,0,UBxy,,,,,0,1,1,3,,,,,,space,1.25388746825,8,1,2.31116474088,2017_May_12_0918,285.86230387,KRITL,002,31051,
,,,,,,,,"('THIRD', 'TIMES', 'HALF', 'INCREASE', 'x', 'y')",TIMES,4,"(8, 4, 12, 4)",4,4,3,7,half,third,increase,UBUUxy,,,,,0,2,2,13,,,,,,space,12.674371669,6,0,11.31914703,2017_May_12_0918,285.86230387,KRITL,002,31051,
,,,,,,,,"('INCREASE', 'DIVIDE', 'TRIPLE', 'HALF', 'x', 'y')",DIVIDE,4,"(2, 6, 2, 3)",3,3,3,4,triple,increase,half,UBUUxy,,,,,0,3,3,12,,,,,,space,12.2099612557,3,1,14.7151961661,2017_May_12_0918,285.86230387,KRITL,002,31051,
,,,,,,,,"('DIVIDE', 'TRIPLE', 'HALF', 'x', 'y')",triple,3,"(4, 12, 4)",4,4,3,8,half,DIVIDE,0,BUUxy,,,,,0,4,4,4,,,,,,space,6.20926693056,4,1,7.80979026415,2017_May_12_0918,285.86230387,KRITL,002,31051,
,,,,,,,,"('TRIPLE', 'DOUBLE', 'SUBTRACT', 'DECREASE', 'x', 'y')",double,4,"(4, 1, 2, 6)",6,6,3,5,SUBTRACT,triple,decrease,UUBUxy,,,,,0,5,5,15,,,,,,space,4.21155428389,6,1,15.6867830804,2017_May_12_0918,285.86230387,KRITL,002,31051,
,,,,,,,,"('TRIPLE', 'DECREASE', 'HALF', 'SUBTRACT', 'x', 'y')",decrease,4,"(4, 2, 1, 3)",3,3,5,9,half,triple,SUBTRACT,UUUBxy,,,,,0,6,6,17,,,,,,space,4.83382392209,3,1,5.0931302059,2017_May_12_0918,285.86230387,KRITL,002,31051,
,,,,,,,,"('INCREASE', 'ADD', 'TRIPLE', 'x', 'y')",ADD,3,"(6, 8, 9)",9,9,2,2,triple,increase,0,UBUxy,,,,,0,7,7,6,,,,,,space,4.56725102197,9,1,3.81127375414,2017_May_12_0918,285.86230387,KRITL,002,31051,
,,,,,,,,"('SUBTRACT', 'INCREASE', 'x', 'y')",increase,2,"(6, 2)",2,2,4,5,0,SUBTRACT,0,BUxy,,,,,0,8,8,1,,,,,,space,1.50627254849,2,1,6.67955111043,2017_May_12_0918,285.86230387,KRITL,002,31051,
,,,,,,,,"('DOUBLE', 'ADD', 'x', 'y')",ADD,2,"(4, 8)",8,8,2,2,0,double,0,UBxy,,,,,0,9,9,2,,,,,,space,1.17008200666,8,1,2.04326968334,2017_May_12_0918,285.86230387,KRITL,002,31051,
,,,,,,,,"('DECREASE', 'TRIPLE', 'DIVIDE', 'x', 'y')",triple,3,"(2, 6, 5)",5,5,4,8,DIVIDE,decrease,0,UUBxy,,,,,0,10,10,8,,,,,,space,1.47370121133,5,1,11.7633698705,2017_May_12_0918,285.86230387,KRITL,002,31051,
,,,,,,,,"('THIRD', 'INCREASE', 'SUBTRACT', 'x', 'y')",increase,3,"(2, 3, 1)",1,1,6,8,SUBTRACT,third,0,UUBxy,,,,,0,11,11,9,,,,,,space,2.88219465528,1,1,7.56247648693,2017_May_12_0918,285.86230387,KRITL,002,31051,
,,,,,,,,"('INCREASE', 'SUBTRACT', 'THIRD', 'x', 'y')",SUBTRACT,3,"(3, 1, 2)",2,2,2,9,third,increase,0,UBUxy,,,,,0,12,12,7,,,,,,space,3.45749655899,2,1,3.9117125718,2017_May_12_0918,285.86230387,KRITL,002,31051,
,,,,,,,,"('TIMES', 'THIRD', 'DOUBLE', 'x', 'y')",third,3,"(6, 2, 4)",4,4,2,3,double,TIMES,0,BUUxy,,,,,0,13,13,5,,,,,,space,5.47493552821,4,1,4.1371015636,2017_May_12_0918,285.86230387,KRITL,002,31051,
,,,,,,,,"('DECREASE', 'TRIPLE', 'HALF', 'ADD', 'x', 'y')",triple,4,"(6, 3, 9, 8)",8,8,2,4,half,decrease,ADD,UUUBxy,,,,,0,14,14,16,,,,,,space,10.7897003308,8,1,8.1793490072,2017_May_12_0918,285.86230387,KRITL,002,31051,
,,,,,,,,"('THIRD', 'INCREASE', 'ADD', 'DOUBLE', 'x', 'y')",increase,4,"(16, 20, 21, 7)",7,7,4,8,ADD,third,double,UUBUxy,,,,,0,15,15,14,,,,,,space,8.80932621419,9,0,16.754501477,2017_May_12_0918,285.86230387,KRITL,002,31051,
,,,,,,,,"('TIMES', 'INCREASE', 'HALF', 'TRIPLE', 'x', 'y')",increase,4,"(6, 3, 4, 8)",8,8,2,2,half,TIMES,triple,BUUUxy,,,,,0,16,16,11,,,,,,space,7.4102446551,6,0,9.50770984348,2017_May_12_0918,285.86230387,KRITL,002,31051,
,,,,,,,,"('ADD', 'THIRD', 'x', 'y')",third,2,"(1, 7)",7,7,6,3,0,ADD,0,BUxy,,,,,0,17,17,0,,,,,,space,2.33790885654,7,1,2.66817663715,2017_May_12_0918,285.86230387,KRITL,002,31051,
,,,,,,,,"('SUBTRACT', 'HALF', 'INCREASE', 'TRIPLE', 'x', 'y')",half,4,"(15, 16, 8, 3)",3,3,5,5,increase,SUBTRACT,triple,BUUUxy,,,,,0,0,0,10,,,,,,space,7.1024420016,3,1,6.7084803904,2017_May_12_0918,285.86230387,KRITL,002,31051,
,,,,,,,,"('TRIPLE', 'HALF', 'ADD', 'DECREASE', 'x', 'y')",half,4,"(1, 4, 2, 6)",6,6,3,2,ADD,triple,decrease,UUBUxy,,,,,0,1,1,15,,,,,,space,7.73499073126,6,1,5.29730483567,2017_May_12_0918,285.86230387,KRITL,002,31051,
,,,,,,,,"('TIMES', 'DECREASE', 'HALF', 'x', 'y')",decrease,3,"(4, 3, 9)",9,9,3,8,half,TIMES,0,BUUxy,,,,,0,2,2,4,,,,,,space,4.78840757025,5,0,11.6067337638,2017_May_12_0918,285.86230387,KRITL,002,31051,
,,,,,,,,"('TIMES', 'INCREASE', 'x', 'y')",increase,2,"(3, 6)",6,6,2,2,0,TIMES,0,BUxy,,,,,0,3,3,1,,,,,,space,2.00726591636,6,1,2.01902919769,2017_May_12_0918,285.86230387,KRITL,002,31051,
,,,,,,,,"('THIRD', 'TIMES', 'DECREASE', 'x', 'y')",TIMES,3,"(3, 15, 5)",5,5,5,4,decrease,third,0,UBUxy,,,,,0,4,4,7,,,,,,space,1.57431710989,5,1,4.94732998044,2017_May_12_0918,285.86230387,KRITL,002,31051,
,,,,,,,,"('TIMES', 'THIRD', 'HALF', 'x', 'y')",third,3,"(3, 1, 5)",5,5,5,6,half,TIMES,0,BUUxy,,,,,0,5,5,5,,,,,,space,2.03620464532,5,1,4.04038039496,2017_May_12_0918,285.86230387,KRITL,002,31051,
,,,,,,,,"('THIRD', 'INCREASE', 'HALF', 'DIVIDE', 'x', 'y')",increase,4,"(4, 2, 3, 1)",1,1,2,8,half,third,DIVIDE,UUUBxy,,,,,0,6,6,16,,,,,,space,5.71459843058,1,1,3.38196175543,2017_May_12_0918,285.86230387,KRITL,002,31051,
,,,,,,,,"('TIMES', 'INCREASE', 'THIRD', 'DOUBLE', 'x', 'y')",increase,4,"(6, 2, 3, 9)",9,9,3,3,third,TIMES,double,BUUUxy,,,,,0,7,7,11,,,,,,space,10.6796721974,3,0,11.4601310749,2017_May_12_0918,285.86230387,KRITL,002,31051,
,,,,,,,,"('TRIPLE', 'HALF', 'DIVIDE', 'x', 'y')",half,3,"(2, 1, 3)",3,3,2,4,DIVIDE,triple,0,UUBxy,,,,,0,8,8,9,,,,,,space,2.26294764108,3,1,6.32251926631,2017_May_12_0918,285.86230387,KRITL,002,31051,
,,,,,,,,"('TIMES', 'DECREASE', 'x', 'y')",decrease,2,"(2, 4)",4,4,2,3,0,TIMES,0,BUxy,,,,,0,9,9,0,,,,,,space,1.29944905444,4,1,2.77396567783,2017_May_12_0918,285.86230387,KRITL,002,31051,
,,,,,,,,"('TRIPLE', 'DECREASE', 'HALF', 'TIMES', 'x', 'y')",decrease,4,"(6, 3, 2, 6)",6,6,2,3,half,triple,TIMES,UUUBxy,,,,,0,10,10,17,,,,,,space,3.54182976368,3,0,7.0422663416,2017_May_12_0918,285.86230387,KRITL,002,31051,
,,,,,,,,"('INCREASE', 'DIVIDE', 'TRIPLE', 'DOUBLE', 'x', 'y')",DIVIDE,4,"(6, 18, 3, 4)",4,4,6,3,triple,increase,double,UBUUxy,,,,,0,11,11,12,,,,,,space,8.67443746192,2,0,18.0671178614,2017_May_12_0918,285.86230387,KRITL,002,31051,
,,,,,,,,"('THIRD', 'ADD', 'INCREASE', 'x', 'y')",ADD,3,"(8, 15, 5)",5,5,7,7,increase,third,0,UBUxy,,,,,0,12,12,6,,,,,,space,5.10957668215,5,1,4.1486342198,2017_May_12_0918,285.86230387,KRITL,002,31051,
,,,,,,,,"('THIRD', 'SUBTRACT', 'x', 'y')",SUBTRACT,2,"(3, 1)",1,1,2,5,0,third,0,UBxy,,,,,0,13,13,3,,,,,,space,1.80200745352,1,1,2.59427055792,2017_May_12_0918,285.86230387,KRITL,002,31051,
,,,,,,,,"('THIRD', 'DECREASE', 'TIMES', 'x', 'y')",decrease,3,"(25, 24, 8)",8,8,5,5,TIMES,third,0,UUBxy,,,,,0,14,14,8,,,,,,space,3.2844773191,8,1,6.66674424164,2017_May_12_0918,285.86230387,KRITL,002,31051,
,,,,,,,,"('THIRD', 'ADD', 'x', 'y')",ADD,2,"(9, 3)",3,3,5,4,0,third,0,UBxy,,,,,0,15,15,2,,,,,,space,2.4980869313,3,1,2.59858979209,2017_May_12_0918,285.86230387,KRITL,002,31051,
,,,,,,,,"('THIRD', 'DOUBLE', 'ADD', 'INCREASE', 'x', 'y')",double,4,"(10, 12, 24, 8)",8,8,2,9,ADD,third,increase,UUBUxy,,,,,0,16,16,14,,,,,,space,14.9008913889,4,0,6.87098641411,2017_May_12_0918,285.86230387,KRITL,002,31051,
,,,,,,,,"('TRIPLE', 'SUBTRACT', 'DOUBLE', 'DECREASE', 'x', 'y')",SUBTRACT,4,"(2, 4, 1, 3)",3,3,3,3,double,triple,decrease,UBUUxy,,,,,0,17,17,13,,,,,,space,10.8210436504,3,1,6.45251099669,2017_May_12_0918,285.86230387,KRITL,002,31051,
,,,,,,,,"('DOUBLE', 'DECREASE', 'ADD', 'x', 'y')",decrease,3,"(4, 3, 6)",6,6,2,2,ADD,double,0,UUBxy,,,,,0,0,0,8,,,,,,space,2.95491716219,6,1,2.42026722417,2017_May_12_0918,285.86230387,KRITL,002,31051,
,,,,,,,,"('DECREASE', 'TRIPLE', 'DIVIDE', 'DOUBLE', 'x', 'y')",triple,4,"(6, 2, 6, 5)",5,5,3,3,DIVIDE,decrease,double,UUBUxy,,,,,0,1,1,14,,,,,,space,8.96464611293,5,1,6.48655917458,2017_May_12_0918,285.86230387,KRITL,002,31051,
,,,,,,,,"('THIRD', 'DIVIDE', 'x', 'y')",DIVIDE,2,"(3, 1)",1,1,2,6,0,third,0,UBxy,,,,,0,2,2,3,,,,,,space,1.36214409277,1,1,4.35986268881,2017_May_12_0918,285.86230387,KRITL,002,31051,
,,,,,,,,"('DIVIDE', 'THIRD', 'x', 'y')",third,2,"(3, 1)",1,1,3,9,0,DIVIDE,0,BUxy,,,,,0,3,3,0,,,,,,space,2.50462912576,1,1,2.27637429305,2017_May_12_0918,285.86230387,KRITL,002,31051,
,,,,,,,,"('THIRD', 'DECREASE', 'TIMES', 'HALF', 'x', 'y')",decrease,4,"(4, 16, 15, 5)",5,5,4,8,TIMES,third,half,UUBUxy,,,,,0,4,4,15,,,,,,space,6.03680378073,5,1,7.88139464159,2017_May_12_0918,285.86230387,KRITL,002,31051,
,,,,,,,,"('TIMES', 'DOUBLE', 'x', 'y')",double,2,"(4, 8)",8,8,2,2,0,TIMES,0,BUxy,,,,,0,5,5,1,,,,,,space,1.60612447947,8,1,2.32497530142,2017_May_12_0918,285.86230387,KRITL,002,31051,
,,,,,,,,"('INCREASE', 'ADD', 'HALF', 'TRIPLE', 'x', 'y')",ADD,4,"(6, 3, 6, 7)",7,7,3,2,half,increase,triple,UBUUxy,,,,,0,6,6,13,,,,,,space,5.66876177405,7,1,7.84496497054,2017_May_12_0918,285.86230387,KRITL,002,31051,
,,,,,,,,"('SUBTRACT', 'TRIPLE', 'DECREASE', 'DOUBLE', 'x', 'y')",triple,4,"(4, 3, 9, 1)",1,1,8,2,decrease,SUBTRACT,double,BUUUxy,,,,,0,7,7,11,,,,,,space,3.70248063747,1,1,12.6464663786,2017_May_12_0918,285.86230387,KRITL,002,31051,
,,,,,,,,"('HALF', 'TRIPLE', 'INCREASE', 'SUBTRACT', 'x', 'y')",triple,4,"(1, 2, 6, 3)",3,3,2,3,increase,half,SUBTRACT,UUUBxy,,,,,0,8,8,17,,,,,,space,2.38536723814,3,1,9.59120383867,2017_May_12_0918,285.86230387,KRITL,002,31051,
,,,,,,,,"('SUBTRACT', 'TRIPLE', 'DECREASE', 'x', 'y')",triple,3,"(4, 12, 3)",3,3,9,5,decrease,SUBTRACT,0,BUUxy,,,,,0,9,9,4,,,,,,space,2.28006779469,3,1,4.94649882009,2017_May_12_0918,285.86230387,KRITL,002,31051,
,,,,,,,,"('DECREASE', 'TRIPLE', 'HALF', 'SUBTRACT', 'x', 'y')",triple,4,"(4, 2, 6, 5)",5,5,2,6,half,decrease,SUBTRACT,UUUBxy,,,,,0,10,10,16,,,,,,space,2.02263835847,5,1,5.57185652526,2017_May_12_0918,285.86230387,KRITL,002,31051,
,,,,,,,,"('TIMES', 'HALF', 'INCREASE', 'x', 'y')",half,3,"(6, 3, 9)",9,9,3,5,increase,TIMES,0,BUUxy,,,,,0,11,11,5,,,,,,space,4.10148905439,6,0,4.70007744667,2017_May_12_0918,285.86230387,KRITL,002,31051,
,,,,,,,,"('INCREASE', 'SUBTRACT', 'x', 'y')",SUBTRACT,2,"(3, 4)",4,4,3,6,0,increase,0,UBxy,,,,,0,12,12,2,,,,,,space,1.31106955113,4,1,5.91633312349,2017_May_12_0918,285.86230387,KRITL,002,31051,
,,,,,,,,"('SUBTRACT', 'DOUBLE', 'TRIPLE', 'DECREASE', 'x', 'y')",double,4,"(2, 6, 12, 8)",8,8,4,3,triple,SUBTRACT,decrease,BUUUxy,,,,,0,13,13,10,,,,,,space,3.65167241712,5,0,10.3710327841,2017_May_12_0918,285.86230387,KRITL,002,31051,
,,,,,,,,"('THIRD', 'TIMES', 'HALF', 'x', 'y')",TIMES,3,"(3, 18, 6)",6,6,6,6,half,third,0,UBUxy,,,,,0,14,14,7,,,,,,space,1.25437146603,3,0,6.7604273879,2017_May_12_0918,285.86230387,KRITL,002,31051,
,,,,,,,,"('DOUBLE', 'THIRD', 'TIMES', 'x', 'y')",third,3,"(12, 4, 8)",8,8,6,2,TIMES,double,0,UUBxy,,,,,0,15,15,9,,,,,,space,2.06400949656,8,1,4.40865057704,2017_May_12_0918,285.86230387,KRITL,002,31051,
,,,,,,,,"('THIRD', 'DIVIDE', 'DECREASE', 'x', 'y')",DIVIDE,3,"(6, 3, 1)",1,1,2,7,decrease,third,0,UBUxy,,,,,0,16,16,6,,,,,,space,1.7640855434,1,1,5.12582088023,2017_May_12_0918,285.86230387,KRITL,002,31051,
,,,,,,,,"('DOUBLE', 'DIVIDE', 'TRIPLE', 'INCREASE', 'x', 'y')",DIVIDE,4,"(5, 15, 3, 6)",6,6,5,4,triple,double,increase,UBUUxy,,,,,0,17,17,12,,,,,,space,5.65409380599,6,1,4.86547765826,2017_May_12_0918,285.86230387,KRITL,002,31051,
,,,,,,,,"('TRIPLE', 'HALF', 'TIMES', 'x', 'y')",half,3,"(6, 3, 9)",9,9,3,2,TIMES,triple,0,UUBxy,,,,,0,0,0,9,,,,,,space,4.01611716175,9,1,4.27687648888,2017_May_12_0918,285.86230387,KRITL,002,31051,
,,,,,,,,"('TRIPLE', 'SUBTRACT', 'INCREASE', 'HALF', 'x', 'y')",SUBTRACT,4,"(3, 4, 1, 3)",3,3,3,6,increase,triple,half,UBUUxy,,,,,0,1,1,13,,,,,,space,5.60345986683,3,1,4.81092764143,2017_May_12_0918,285.86230387,KRITL,002,31051,
,,,,,,,,"('INCREASE', 'DIVIDE', 'HALF', 'x', 'y')",DIVIDE,3,"(2, 1, 2)",2,2,2,4,half,increase,0,UBUxy,,,,,0,2,2,7,,,,,,space,5.40737776432,2,1,3.4994780313,2017_May_12_0918,285.86230387,KRITL,002,31051,
,,,,,,,,"('SUBTRACT', 'THIRD', 'x', 'y')",third,2,"(3, 1)",1,1,2,9,0,SUBTRACT,0,BUxy,,,,,0,3,3,0,,,,,,space,1.10674618743,1,1,3.57347720047,2017_May_12_0918,285.86230387,KRITL,002,31051,
,,,,,,,,"('DOUBLE', 'TIMES', 'THIRD', 'x', 'y')",TIMES,3,"(1, 4, 8)",8,8,4,3,third,double,0,UBUxy,,,,,0,4,4,6,,,,,,space,2.89837026075,8,1,4.13029339784,2017_May_12_0918,285.86230387,KRITL,002,31051,
,,,,,,,,"('ADD', 'DECREASE', 'HALF', 'x', 'y')",decrease,3,"(3, 2, 6)",6,6,4,6,half,ADD,0,BUUxy,,,,,0,5,5,4,,,,,,space,4.11698783288,5,0,5.83292381917,2017_May_12_0918,285.86230387,KRITL,002,31051,
,,,,,,,,"('DECREASE', 'DIVIDE', 'TRIPLE', 'DOUBLE', 'x', 'y')",DIVIDE,4,"(6, 18, 2, 1)",1,1,9,3,triple,decrease,double,UBUUxy,,,,,0,6,6,12,,,,,,space,4.81750693187,2,0,10.0081565703,2017_May_12_0918,285.86230387,KRITL,002,31051,
,,,,,,,,"('SUBTRACT', 'DOUBLE', 'DECREASE', 'x', 'y')",double,3,"(8, 16, 7)",7,7,9,9,decrease,SUBTRACT,0,BUUxy,,,,,0,7,7,5,,,,,,space,3.04591154843,8,0,10.4224051436,2017_May_12_0918,285.86230387,KRITL,002,31051,
,,,,,,,,"('INCREASE', 'TIMES', 'x', 'y')",TIMES,2,"(8, 9)",9,9,4,2,0,increase,0,UBxy,,,,,0,8,8,2,,,,,,space,1.06285287131,7,0,2.02300826856,2017_May_12_0918,285.86230387,KRITL,002,31051,
,,,,,,,,"('DECREASE', 'HALF', 'TRIPLE', 'ADD', 'x', 'y')",half,4,"(4, 12, 6, 5)",5,5,2,2,triple,decrease,ADD,UUUBxy,,,,,0,9,9,16,,,,,,space,7.09497485694,5,1,5.81199117674,2017_May_12_0918,285.86230387,KRITL,002,31051,
,,,,,,,,"('TIMES', 'THIRD', 'x', 'y')",third,2,"(1, 4)",4,4,4,3,0,TIMES,0,BUxy,,,,,0,10,10,1,,,,,,space,1.39647399029,4,1,2.67820165594,2017_May_12_0918,285.86230387,KRITL,002,31051,
,,,,,,,,"('TIMES', 'DECREASE', 'THIRD', 'DOUBLE', 'x', 'y')",decrease,4,"(6, 2, 1, 2)",2,2,2,3,third,TIMES,double,BUUUxy,,,,,0,11,11,11,,,,,,space,7.14247313427,4,0,12.3713351515,2017_May_12_0918,285.86230387,KRITL,002,31051,
,,,,,,,,"('DIVIDE', 'DECREASE', 'THIRD', 'DOUBLE', 'x', 'y')",decrease,4,"(12, 4, 3, 1)",1,1,3,6,third,DIVIDE,double,BUUUxy,,,,,0,12,12,10,,,,,,space,4.59751470803,2,0,8.32292802221,2017_May_12_0918,285.86230387,KRITL,002,31051,
,,,,,,,,"('DECREASE', 'HALF', 'DIVIDE', 'x', 'y')",half,3,"(4, 2, 1)",1,1,2,8,DIVIDE,decrease,0,UUBxy,,,,,0,13,13,8,,,,,,space,1.37631791411,1,1,2.82360887376,2017_May_12_0918,285.86230387,KRITL,002,31051,
,,,,,,,,"('TRIPLE', 'SUBTRACT', 'x', 'y')",SUBTRACT,2,"(2, 6)",6,6,6,8,0,triple,0,UBxy,,,,,0,14,14,3,,,,,,space,1.47310592551,1,0,3.19267836964,2017_May_12_0918,285.86230387,KRITL,002,31051,
,,,,,,,,"('INCREASE', 'HALF', 'TIMES', 'TRIPLE', 'x', 'y')",half,4,"(6, 12, 6, 7)",7,7,2,2,TIMES,increase,triple,UUBUxy,,,,,0,15,15,14,,,,,,space,10.527992256,3,0,7.70179681122,2017_May_12_0918,285.86230387,KRITL,002,31051,
,,,,,,,,"('THIRD', 'INCREASE', 'SUBTRACT', 'HALF', 'x', 'y')",increase,4,"(4, 2, 3, 1)",1,1,2,8,SUBTRACT,third,half,UUBUxy,,,,,0,16,16,15,,,,,,space,12.2287010346,1,1,9.25704132809,2017_May_12_0918,285.86230387,KRITL,002,31051,
,,,,,,,,"('INCREASE', 'TRIPLE', 'HALF', 'ADD', 'x', 'y')",triple,4,"(4, 2, 6, 7)",7,7,2,2,half,increase,ADD,UUUBxy,,,,,0,17,17,17,,,,,,space,3.47176941967,7,1,6.1194631159,2017_May_12_0918,285.86230387,KRITL,002,31051,
,,,,,,,,"('HALF', 'TIMES', 'DECREASE', 'x', 'y')",TIMES,3,"(8, 16, 8)",8,8,2,9,decrease,half,0,UBUxy,,,,,0,0,0,6,,,,,,space,5.06748322194,6,0,8.75331615488,2017_May_12_0918,285.86230387,KRITL,002,31051,
,,,,,,,,"('INCREASE', 'TIMES', 'TRIPLE', 'HALF', 'x', 'y')",TIMES,4,"(1, 3, 6, 7)",7,7,2,2,triple,increase,half,UBUUxy,,,,,0,1,1,13,,,,,,space,3.88101423261,7,1,6.35487257698,2017_May_12_0918,285.86230387,KRITL,002,31051,
,,,,,,,,"('TRIPLE', 'HALF', 'ADD', 'x', 'y')",half,3,"(6, 3, 9)",9,9,3,3,ADD,triple,0,UUBxy,,,,,0,2,2,8,,,,,,space,1.92558297588,9,1,11.7684065274,2017_May_12_0918,285.86230387,KRITL,002,31051,
,,,,,,,,"('THIRD', 'INCREASE', 'HALF', 'TIMES', 'x', 'y')",increase,4,"(28, 14, 15, 5)",5,5,4,7,half,third,TIMES,UUUBxy,,,,,0,3,3,17,,,,,,space,9.87477895507,5,1,12.5961656036,2017_May_12_0918,285.86230387,KRITL,002,31051,
,,,,,,,,"('SUBTRACT', 'TRIPLE', 'x', 'y')",triple,2,"(12, 9)",9,9,3,4,0,SUBTRACT,0,BUxy,,,,,0,4,4,1,,,,,,space,1.18921514315,9,1,4.11847727222,2017_May_12_0918,285.86230387,KRITL,002,31051,
,,,,,,,,"('TRIPLE', 'INCREASE', 'DIVIDE', 'DOUBLE', 'x', 'y')",increase,4,"(16, 2, 3, 9)",9,9,8,8,DIVIDE,triple,double,UUBUxy,,,,,0,5,5,15,,,,,,space,6.36155300651,9,1,4.48254825716,2017_May_12_0918,285.86230387,KRITL,002,31051,
,,,,,,,,"('TRIPLE', 'INCREASE', 'SUBTRACT', 'x', 'y')",increase,3,"(1, 2, 6)",6,6,2,3,SUBTRACT,triple,0,UUBxy,,,,,0,6,6,9,,,,,,space,2.69690783849,6,1,4.25889402826,2017_May_12_0918,285.86230387,KRITL,002,31051,
,,,,,,,,"('DIVIDE', 'TRIPLE', 'DECREASE', 'x', 'y')",triple,3,"(6, 18, 9)",9,9,2,7,decrease,DIVIDE,0,BUUxy,,,,,0,7,7,4,,,,,,space,2.30960565901,9,1,9.56993663235,2017_May_12_0918,285.86230387,KRITL,002,31051,
,,,,,,,,"('DECREASE', 'THIRD', 'DOUBLE', 'ADD', 'x', 'y')",third,4,"(9, 18, 6, 5)",5,5,4,5,double,decrease,ADD,UUUBxy,,,,,0,8,8,16,,,,,,space,2.75624778867,7,0,15.378034129,2017_May_12_0918,285.86230387,KRITL,002,31051,
,,,,,,,,"('TIMES', 'HALF', 'INCREASE', 'THIRD', 'x', 'y')",half,4,"(1, 2, 1, 9)",9,9,9,3,increase,TIMES,third,BUUUxy,,,,,0,9,9,11,,,,,,space,4.56212862444,9,1,5.07550645663,2017_May_12_0918,285.86230387,KRITL,002,31051,
,,,,,,,,"('SUBTRACT', 'INCREASE', 'HALF', 'x', 'y')",increase,3,"(4, 5, 3)",3,3,2,8,half,SUBTRACT,0,BUUxy,,,,,0,10,10,5,,,,,,space,5.52497663125,3,1,3.18803122084,2017_May_12_0918,285.86230387,KRITL,002,31051,
,,,,,,,,"('TRIPLE', 'DOUBLE', 'SUBTRACT', 'INCREASE', 'x', 'y')",double,4,"(5, 1, 2, 6)",6,6,4,4,SUBTRACT,triple,increase,UUBUxy,,,,,0,11,11,14,,,,,,space,2.2911154032,6,1,5.04771910349,2017_May_12_0918,285.86230387,KRITL,002,31051,
,,,,,,,,"('HALF', 'SUBTRACT', 'DECREASE', 'TRIPLE', 'x', 'y')",SUBTRACT,4,"(15, 14, 10, 5)",5,5,4,5,decrease,half,triple,UBUUxy,,,,,0,12,12,12,,,,,,space,3.71396359903,5,1,7.23686565403,2017_May_12_0918,285.86230387,KRITL,002,31051,
,,,,,,,,"('DIVIDE', 'DOUBLE', 'INCREASE', 'TRIPLE', 'x', 'y')",double,4,"(9, 10, 20, 5)",5,5,4,3,increase,DIVIDE,triple,BUUUxy,,,,,0,13,13,10,,,,,,space,3.82914177704,6,0,16.7532734594,2017_May_12_0918,285.86230387,KRITL,002,31051,
,,,,,,,,"('ADD', 'HALF', 'x', 'y')",half,2,"(2, 7)",7,7,5,4,0,ADD,0,BUxy,,,,,0,14,14,0,,,,,,space,1.66818748598,7,1,2.45550317399,2017_May_12_0918,285.86230387,KRITL,002,31051,
,,,,,,,,"('INCREASE', 'DIVIDE', 'x', 'y')",DIVIDE,2,"(4, 5)",5,5,2,8,0,increase,0,UBxy,,,,,0,15,15,3,,,,,,space,0.976625670912,5,1,2.71049267339,2017_May_12_0918,285.86230387,KRITL,002,31051,
,,,,,,,,"('INCREASE', 'DIVIDE', 'TRIPLE', 'x', 'y')",DIVIDE,3,"(6, 2, 3)",3,3,3,2,triple,increase,0,UBUxy,,,,,0,16,16,7,,,,,,space,2.38785337002,2,0,3.92737478262,2017_May_12_0918,285.86230387,KRITL,002,31051,
,,,,,,,,"('DOUBLE', 'DIVIDE', 'x', 'y')",DIVIDE,2,"(1, 2)",2,2,8,8,0,double,0,UBxy,,,,,0,17,17,2,,,,,,space,1.04301561078,2,1,11.0269015987,2017_May_12_0918,285.86230387,KRITL,002,31051,
,,,,,,,,"('DIVIDE', 'DECREASE', 'x', 'y')",decrease,2,"(8, 2)",2,2,4,9,0,DIVIDE,0,BUxy,,,,,0,0,0,1,,,,,,space,2.95926124367,2,1,2.80582029227,2017_May_12_0918,285.86230387,KRITL,002,31051,
,,,,,,,,"('DOUBLE', 'SUBTRACT', 'INCREASE', 'x', 'y')",SUBTRACT,3,"(4, 1, 2)",2,2,3,3,increase,double,0,UBUxy,,,,,0,1,1,6,,,,,,space,2.08562596524,2,1,2.97957690264,2017_May_12_0918,285.86230387,KRITL,002,31051,
,,,,,,,,"('ADD', 'DECREASE', 'x', 'y')",decrease,2,"(2, 7)",7,7,5,3,0,ADD,0,BUxy,,,,,0,2,2,0,,,,,,space,1.23754843039,7,1,3.24123213309,2017_May_12_0918,285.86230387,KRITL,002,31051,
,,,,,,,,"('THIRD', 'HALF', 'INCREASE', 'SUBTRACT', 'x', 'y')",half,4,"(5, 6, 3, 1)",1,1,2,7,increase,third,SUBTRACT,UUUBxy,,,,,0,3,3,17,,,,,,space,2.37400536353,1,1,6.64268188676,2017_May_12_0918,285.86230387,KRITL,002,31051,
,,,,,,,,"('DECREASE', 'ADD', 'THIRD', 'HALF', 'x', 'y')",ADD,4,"(3, 1, 7, 6)",6,6,6,6,third,decrease,half,UBUUxy,,,,,0,4,4,12,,,,,,space,3.32960950161,6,1,9.30311070953,2017_May_12_0918,285.86230387,KRITL,002,31051,
,,,,,,,,"('DOUBLE', 'THIRD', 'ADD', 'x', 'y')",third,3,"(9, 3, 6)",6,6,4,5,ADD,double,0,UUBxy,,,,,0,5,5,8,,,,,,space,4.16414279718,6,1,6.56718907866,2017_May_12_0918,285.86230387,KRITL,002,31051,
,,,,,,,,"('ADD', 'DECREASE', 'THIRD', 'DOUBLE', 'x', 'y')",decrease,4,"(18, 6, 5, 9)",9,9,4,9,third,ADD,double,BUUUxy,,,,,0,6,6,10,,,,,,space,3.90505628969,None,0,,2017_May_12_0918,285.86230387,KRITL,002,31051,
,,,,,,,,"('ADD', 'TRIPLE', 'HALF', 'x', 'y')",triple,3,"(2, 6, 8)",8,8,2,4,half,ADD,0,BUUxy,,,,,0,7,7,5,,,,,,space,1.30634366084,8,1,5.28753178968,2017_May_12_0918,285.86230387,KRITL,002,31051,
,,,,,,,,"('DECREASE', 'SUBTRACT', 'DOUBLE', 'THIRD', 'x', 'y')",SUBTRACT,4,"(3, 6, 4, 3)",3,3,2,9,double,decrease,third,UBUUxy,,,,,0,8,8,13,,,,,,space,1.90884988054,4,0,7.90969468941,2017_May_12_0918,285.86230387,KRITL,002,31051,
,,,,,,,,"('DECREASE', 'TRIPLE', 'SUBTRACT', 'DOUBLE', 'x', 'y')",triple,4,"(6, 3, 9, 8)",8,8,3,3,SUBTRACT,decrease,double,UUBUxy,,,,,0,9,9,15,,,,,,space,8.982586928,3,0,8.22936771269,2017_May_12_0918,285.86230387,KRITL,002,31051,
,,,,,,,,"('HALF', 'INCREASE', 'TIMES', 'x', 'y')",increase,3,"(9, 10, 5)",5,5,3,3,TIMES,half,0,UUBxy,,,,,0,10,10,9,,,,,,space,1.99129468887,5,1,4.82199134823,2017_May_12_0918,285.86230387,KRITL,002,31051,
,,,,,,,,"('HALF', 'ADD', 'x', 'y')",ADD,2,"(12, 6)",6,6,8,4,0,half,0,UBxy,,,,,0,11,11,3,,,,,,space,1.03852524507,6,1,2.42437788084,2017_May_12_0918,285.86230387,KRITL,002,31051,
,,,,,,,,"('DECREASE', 'DOUBLE', 'TIMES', 'THIRD', 'x', 'y')",double,4,"(1, 3, 6, 5)",5,5,3,3,TIMES,decrease,third,UUBUxy,,,,,0,12,12,14,,,,,,space,3.39348776234,5,1,7.65488122107,2017_May_12_0918,285.86230387,KRITL,002,31051,
,,,,,,,,"('DECREASE', 'TIMES', 'x', 'y')",TIMES,2,"(9, 8)",8,8,3,3,0,decrease,0,UBxy,,,,,0,13,13,2,,,,,,space,0.947083257051,8,1,1.54598871511,2017_May_12_0918,285.86230387,KRITL,002,31051,
,,,,,,,,"('INCREASE', 'ADD', 'HALF', 'x', 'y')",ADD,3,"(1, 4, 5)",5,5,3,2,half,increase,0,UBUxy,,,,,0,14,14,7,,,,,,space,3.20040903587,5,1,8.43402669023,2017_May_12_0918,285.86230387,KRITL,002,31051,
,,,,,,,,"('ADD', 'TRIPLE', 'DOUBLE', 'DECREASE', 'x', 'y')",triple,4,"(1, 2, 6, 8)",8,8,2,2,double,ADD,decrease,BUUUxy,,,,,0,15,15,11,,,,,,space,2.96637807612,4,0,7.35280430006,2017_May_12_0918,285.86230387,KRITL,002,31051,
,,,,,,,,"('INCREASE', 'HALF', 'THIRD', 'TIMES', 'x', 'y')",half,4,"(12, 4, 2, 3)",3,3,4,3,third,increase,TIMES,UUUBxy,,,,,0,16,16,16,,,,,,space,3.5870987814,3,1,5.06410188662,2017_May_12_0918,285.86230387,KRITL,002,31051,
,,,,,,,,"('ADD', 'DOUBLE', 'DECREASE', 'x', 'y')",double,3,"(1, 2, 7)",7,7,5,2,decrease,ADD,0,BUUxy,,,,,0,17,17,4,,,,,,space,1.49235454955,7,1,2.93153758367,2017_May_12_0918,285.86230387,KRITL,002,31051,
,,,,,,,,"('THIRD', 'TIMES', 'DOUBLE', 'DECREASE', 'x', 'y')",TIMES,4,"(1, 2, 6, 2)",2,2,3,2,double,third,decrease,UBUUxy,,,,,0,0,0,13,,,,,,space,2.09514248889,3,0,4.67649454006,2017_May_12_0918,285.86230387,KRITL,002,31051,
,,,,,,,,"('THIRD', 'HALF', 'ADD', 'x', 'y')",half,3,"(6, 3, 1)",1,1,3,3,ADD,third,0,UUBxy,,,,,0,1,1,9,,,,,,space,1.84628257842,1,1,6.16326964137,2017_May_12_0918,285.86230387,KRITL,002,31051,
,,,,,,,,"('THIRD', 'INCREASE', 'DIVIDE', 'DOUBLE', 'x', 'y')",increase,4,"(18, 2, 3, 1)",1,1,9,9,DIVIDE,third,double,UUBUxy,,,,,0,2,2,15,,,,,,space,1.57210359865,3,0,6.93400796724,2017_May_12_0918,285.86230387,KRITL,002,31051,
,,,,,,,,"('SUBTRACT', 'DECREASE', 'TRIPLE', 'DOUBLE', 'x', 'y')",decrease,4,"(6, 18, 17, 8)",8,8,9,3,triple,SUBTRACT,double,BUUUxy,,,,,0,3,3,11,,,,,,space,10.561362557,9,0,12.8229320468,2017_May_12_0918,285.86230387,KRITL,002,31051,
,,,,,,,,"('INCREASE', 'ADD', 'x', 'y')",ADD,2,"(5, 6)",6,6,2,3,0,increase,0,UBxy,,,,,0,4,4,3,,,,,,space,0.883576656255,6,1,2.73810924491,2017_May_12_0918,285.86230387,KRITL,002,31051,
,,,,,,,,"('DIVIDE', 'DECREASE', 'TRIPLE', 'x', 'y')",decrease,3,"(9, 8, 4)",4,4,2,3,triple,DIVIDE,0,BUUxy,,,,,0,5,5,5,,,,,,space,2.86847298517,4,1,6.34202231289,2017_May_12_0918,285.86230387,KRITL,002,31051,
,,,,,,,,"('DOUBLE', 'ADD', 'INCREASE', 'THIRD', 'x', 'y')",ADD,4,"(1, 2, 4, 8)",8,8,2,3,increase,double,third,UBUUxy,,,,,0,6,6,12,,,,,,space,5.55741988224,8,1,4.6792970378,2017_May_12_0918,285.86230387,KRITL,002,31051,
,,,,,,,,"('SUBTRACT', 'DECREASE', 'x', 'y')",decrease,2,"(5, 3)",3,3,2,6,0,SUBTRACT,0,BUxy,,,,,0,7,7,1,,,,,,space,0.914477973536,3,1,3.27012396712,2017_May_12_0918,285.86230387,KRITL,002,31051,
,,,,,,,,"('INCREASE', 'SUBTRACT', 'HALF', 'x', 'y')",SUBTRACT,3,"(4, 2, 3)",3,3,2,8,half,increase,0,UBUxy,,,,,0,8,8,7,,,,,,space,2.02513533918,3,1,5.07704104111,2017_May_12_0918,285.86230387,KRITL,002,31051,
,,,,,,,,"('DIVIDE', 'INCREASE', 'x', 'y')",increase,2,"(4, 2)",2,2,2,3,0,DIVIDE,0,BUxy,,,,,0,9,9,0,,,,,,space,2.36969172876,2,1,2.24745586189,2017_May_12_0918,285.86230387,KRITL,002,31051,
,,,,,,,,"('ADD', 'DOUBLE', 'DECREASE', 'THIRD', 'x', 'y')",double,4,"(2, 1, 2, 8)",8,8,6,6,decrease,ADD,third,BUUUxy,,,,,0,10,10,10,,,,,,space,2.87063645184,8,1,8.16061657752,2017_May_12_0918,285.86230387,KRITL,002,31051,
,,,,,,,,"('HALF', 'ADD', 'TRIPLE', 'x', 'y')",ADD,3,"(9, 12, 6)",6,6,3,3,triple,half,0,UBUxy,,,,,0,11,11,6,,,,,,space,1.7523523588,3,0,11.5100342928,2017_May_12_0918,285.86230387,KRITL,002,31051,
,,,,,,,,"('ADD', 'HALF', 'THIRD', 'x', 'y')",half,3,"(2, 1, 9)",9,9,8,6,third,ADD,0,BUUxy,,,,,0,12,12,4,,,,,,space,3.61789895961,9,1,4.5492006687,2017_May_12_0918,285.86230387,KRITL,002,31051,
,,,,,,,,"('INCREASE', 'TRIPLE', 'DIVIDE', 'x', 'y')",triple,3,"(2, 6, 7)",7,7,3,6,DIVIDE,increase,0,UUBxy,,,,,0,13,13,8,,,,,,space,4.45378590919,7,1,4.27883172801,2017_May_12_0918,285.86230387,KRITL,002,31051,
,,,,,,,,"('THIRD', 'DOUBLE', 'ADD', 'DECREASE', 'x', 'y')",double,4,"(5, 12, 24, 8)",8,8,7,6,ADD,third,decrease,UUBUxy,,,,,0,14,14,14,,,,,,space,7.39480082074,8,1,14.8676894197,2017_May_12_0918,285.86230387,KRITL,002,31051,
,,,,,,,,"('THIRD', 'DOUBLE', 'INCREASE', 'TIMES', 'x', 'y')",double,4,"(8, 9, 18, 6)",6,6,4,2,increase,third,TIMES,UUUBxy,,,,,0,15,15,17,,,,,,space,10.0852546553,4,0,11.5426413261,2017_May_12_0918,285.86230387,KRITL,002,31051,
,,,,,,,,"('DECREASE', 'DIVIDE', 'x', 'y')",DIVIDE,2,"(2, 1)",1,1,4,8,0,decrease,0,UBxy,,,,,0,16,16,2,,,,,,space,1.20642453711,3,0,3.05043411069,2017_May_12_0918,285.86230387,KRITL,002,31051,
,,,,,,,,"('HALF', 'TRIPLE', 'INCREASE', 'DIVIDE', 'x', 'y')",triple,4,"(3, 4, 12, 6)",6,6,3,9,increase,half,DIVIDE,UUUBxy,,,,,0,17,17,16,,,,,,space,4.00265061413,6,1,4.27675610184,2017_May_12_0918,285.86230387,KRITL,002,31051,
