operationc,operationb,operationa,correctresponse,valuey,operationd,condition,valuex,Rule,Operatora,Length,Intermediate,CorrectResponse,Result,Y,X,Operatorc,Operatorb,Operatord,Structure,practice_trials.thisRepN,practice_trials.thisTrialN,practice_trials.thisN,practice_trials.thisIndex,block.thisRepN,block.thisTrialN,block.thisN,block.thisIndex,practice_encoding.keys,practice_encoding.rt,practice_execution.keys,practice_execution.corr,practice_execution.rt,encoding.keys,encoding.rt,execution.keys,execution.corr,execution.rt,date,frameRate,expName,session,participant,
0,decrease,TIMES,8,3,0,2,3,,,,,,,,,,,,,0,0,0,1,,,,,['space'],[2.8665561247617006],8,1,4.31646252726,,,,,,2017_May_26_0911,60.0050608891,KRITL,002,31054,
ADD,triple ,half,8,2,0,3,4,,,,,,,,,,,,,0,1,1,3,,,,,['space'],[3.8831321452744305],8,1,9.38271166408,,,,,,2017_May_26_0911,60.0050608891,KRITL,002,31054,
0,ADD,half,7,5,0,2,4,,,,,,,,,,,,,0,2,2,2,,,,,['space'],[1.8499776548705995],7,1,1.75002073543,,,,,,2017_May_26_0911,60.0050608891,KRITL,002,31054,
increase,DIVIDE,triple,3,3,0,3,2,,,,,,,,,,,,,0,3,3,4,,,,,['space'],[4.4997415519319475],3,1,4.38313022046,,,,,,2017_May_26_0911,60.0050608891,KRITL,002,31054,
increase,DIVIDE,double,9,8,triple,4,8,,,,,,,,,,,,,0,4,4,5,,,,,['space'],[10.682548475917429],9,1,4.28313865466,,,,,,2017_May_26_0911,60.0050608891,KRITL,002,31054,
0,ADD,decrease,7,5,0,2,3,,,,,,,,,,,,,0,5,5,0,,,,,['space'],[2.7665596595034003],7,1,1.60004808498,,,,,,2017_May_26_0911,60.0050608891,KRITL,002,31054,
,,,,,,,,"('DOUBLE', 'TIMES', 'x', 'y')",TIMES,2,"(4, 8)",8,8,2,2,0,double,0,UBxy,,,,,0,0,0,3,,,,,,space,3.06655500503,8,1,1.86670590937,2017_May_26_0911,60.0050608891,KRITL,002,31054,
,,,,,,,,"('DECREASE', 'TRIPLE', 'HALF', 'ADD', 'x', 'y')",triple,4,"(6, 3, 9, 8)",8,8,2,4,half,decrease,ADD,UUUBxy,,,,,0,1,1,16,,,,,,space,9.39934367849,8,1,4.63313328265,2017_May_26_0911,60.0050608891,KRITL,002,31054,
,,,,,,,,"('INCREASE', 'ADD', 'TRIPLE', 'x', 'y')",ADD,3,"(6, 8, 9)",9,9,2,2,triple,increase,0,UBUxy,,,,,0,2,2,6,,,,,,space,10.3159687286,9,1,9.13275304716,2017_May_26_0911,60.0050608891,KRITL,002,31054,
,,,,,,,,"('DOUBLE', 'ADD', 'x', 'y')",ADD,2,"(4, 8)",8,8,2,2,0,double,0,UBxy,,,,,0,3,3,2,,,,,,space,2.88324903278,8,1,5.98304146947,2017_May_26_0911,60.0050608891,KRITL,002,31054,
,,,,,,,,"('INCREASE', 'SUBTRACT', 'THIRD', 'x', 'y')",SUBTRACT,3,"(3, 1, 2)",2,2,2,9,third,increase,0,UBUxy,,,,,0,4,4,7,,,,,,space,8.93281716062,2,1,3.94974944368,2017_May_26_0911,60.0050608891,KRITL,002,31054,
,,,,,,,,"('TIMES', 'INCREASE', 'HALF', 'TRIPLE', 'x', 'y')",increase,4,"(6, 3, 4, 8)",8,8,2,2,half,TIMES,triple,BUUUxy,,,,,0,5,5,11,,,,,,space,9.53268361441,8,1,5.3164205316,2017_May_26_0911,60.0050608891,KRITL,002,31054,
,,,,,,,,"('DIVIDE', 'DOUBLE', 'INCREASE', 'THIRD', 'x', 'y')",double,4,"(2, 3, 6, 2)",2,2,3,6,increase,DIVIDE,third,BUUUxy,,,,,0,6,6,10,,,,,,space,12.3157716992,2,1,6.48302449659,2017_May_26_0911,60.0050608891,KRITL,002,31054,
,,,,,,,,"('DECREASE', 'TRIPLE', 'DIVIDE', 'x', 'y')",triple,3,"(2, 6, 5)",5,5,4,8,DIVIDE,decrease,0,UUBxy,,,,,0,7,7,8,,,,,,space,6.58292997116,5,1,4.11654133885,2017_May_26_0911,60.0050608891,KRITL,002,31054,
,,,,,,,,"('TRIPLE', 'DECREASE', 'HALF', 'SUBTRACT', 'x', 'y')",decrease,4,"(4, 2, 1, 3)",3,3,5,9,half,triple,SUBTRACT,UUUBxy,,,,,0,8,8,17,,,,,,space,15.7487930635,3,1,3.61670669657,2017_May_26_0911,60.0050608891,KRITL,002,31054,
,,,,,,,,"('INCREASE', 'DIVIDE', 'TRIPLE', 'HALF', 'x', 'y')",DIVIDE,4,"(2, 6, 2, 3)",3,3,3,4,triple,increase,half,UBUUxy,,,,,0,9,9,12,,,,,,space,4.8830583028,1,0,9.19922056119,2017_May_26_0911,60.0050608891,KRITL,002,31054,
,,,,,,,,"('TRIPLE', 'DOUBLE', 'SUBTRACT', 'DECREASE', 'x', 'y')",double,4,"(4, 1, 2, 6)",6,6,3,5,SUBTRACT,triple,decrease,UUBUxy,,,,,0,10,10,15,,,,,,space,6.63291595504,6,1,5.01642343635,2017_May_26_0911,60.0050608891,KRITL,002,31054,
,,,,,,,,"('SUBTRACT', 'INCREASE', 'x', 'y')",increase,2,"(6, 2)",2,2,4,5,0,SUBTRACT,0,BUxy,,,,,0,11,11,1,,,,,,space,2.41663922369,2,1,2.16671805293,2017_May_26_0911,60.0050608891,KRITL,002,31054,
,,,,,,,,"('TIMES', 'THIRD', 'DOUBLE', 'x', 'y')",third,3,"(6, 2, 4)",4,4,2,3,double,TIMES,0,BUUxy,,,,,0,12,12,5,,,,,,space,6.09959470737,4,1,4.84968788503,2017_May_26_0911,60.0050608891,KRITL,002,31054,
,,,,,,,,"('THIRD', 'TIMES', 'HALF', 'INCREASE', 'x', 'y')",TIMES,4,"(8, 4, 12, 4)",4,4,3,7,half,third,increase,UBUUxy,,,,,0,13,13,13,,,,,,space,12.3658486737,4,1,12.0658669767,2017_May_26_0911,60.0050608891,KRITL,002,31054,
,,,,,,,,"('ADD', 'THIRD', 'x', 'y')",third,2,"(1, 7)",7,7,6,3,0,ADD,0,BUxy,,,,,0,14,14,0,,,,,,space,1.86646373454,7,1,1.81676437054,2017_May_26_0911,60.0050608891,KRITL,002,31054,
,,,,,,,,"('THIRD', 'INCREASE', 'ADD', 'DOUBLE', 'x', 'y')",increase,4,"(16, 20, 21, 7)",7,7,4,8,ADD,third,double,UUBUxy,,,,,0,15,15,14,,,,,,space,9.58275848906,None,0,,2017_May_26_0911,60.0050608891,KRITL,002,31054,
,,,,,,,,"('THIRD', 'INCREASE', 'SUBTRACT', 'x', 'y')",increase,3,"(2, 3, 1)",1,1,6,8,SUBTRACT,third,0,UUBxy,,,,,0,16,16,9,,,,,,space,6.43299931637,1,1,3.38300423371,2017_May_26_0911,60.0050608891,KRITL,002,31054,
,,,,,,,,"('DIVIDE', 'TRIPLE', 'HALF', 'x', 'y')",triple,3,"(4, 12, 4)",4,4,3,8,half,DIVIDE,0,BUUxy,,,,,0,17,17,4,,,,,,space,4.9663993062,4,1,4.59981885902,2017_May_26_0911,60.0050608891,KRITL,002,31054,
,,,,,,,,"('TRIPLE', 'DECREASE', 'HALF', 'TIMES', 'x', 'y')",decrease,4,"(6, 3, 2, 6)",6,6,2,3,half,triple,TIMES,UUUBxy,,,,,0,0,0,17,,,,,,space,6.19964366732,6,1,7.03293576301,2017_May_26_0911,60.0050608891,KRITL,002,31054,
,,,,,,,,"('TIMES', 'DECREASE', 'HALF', 'x', 'y')",decrease,3,"(4, 3, 9)",9,9,3,8,half,TIMES,0,BUUxy,,,,,0,1,1,4,,,,,,space,3.26653113752,9,1,3.51655869698,2017_May_26_0911,60.0050608891,KRITL,002,31054,
,,,,,,,,"('THIRD', 'DECREASE', 'TIMES', 'x', 'y')",decrease,3,"(25, 24, 8)",8,8,5,5,TIMES,third,0,UUBxy,,,,,0,2,2,8,,,,,,space,4.16647062893,8,1,4.78312448086,2017_May_26_0911,60.0050608891,KRITL,002,31054,
,,,,,,,,"('TRIPLE', 'SUBTRACT', 'DOUBLE', 'DECREASE', 'x', 'y')",SUBTRACT,4,"(2, 4, 1, 3)",3,3,3,3,double,triple,decrease,UBUUxy,,,,,0,3,3,13,,,,,,space,9.36622068495,3,1,5.36360155838,2017_May_26_0911,60.0050608891,KRITL,002,31054,
,,,,,,,,"('TRIPLE', 'HALF', 'ADD', 'DECREASE', 'x', 'y')",half,4,"(1, 4, 2, 6)",6,6,3,2,ADD,triple,decrease,UUBUxy,,,,,0,4,4,15,,,,,,space,10.1493322172,6,1,4.56651423406,2017_May_26_0911,60.0050608891,KRITL,002,31054,
,,,,,,,,"('THIRD', 'DOUBLE', 'ADD', 'INCREASE', 'x', 'y')",double,4,"(10, 12, 24, 8)",8,8,2,9,ADD,third,increase,UUBUxy,,,,,0,5,5,14,,,,,,space,9.54921028996,8,1,5.68305172352,2017_May_26_0911,60.0050608891,KRITL,002,31054,
,,,,,,,,"('TIMES', 'INCREASE', 'THIRD', 'DOUBLE', 'x', 'y')",increase,4,"(6, 2, 3, 9)",9,9,3,3,third,TIMES,double,BUUUxy,,,,,0,6,6,11,,,,,,space,4.86641928926,9,1,6.56632000441,2017_May_26_0911,60.0050608891,KRITL,002,31054,
,,,,,,,,"('THIRD', 'TIMES', 'DECREASE', 'x', 'y')",TIMES,3,"(3, 15, 5)",5,5,5,4,decrease,third,0,UBUxy,,,,,0,7,7,7,,,,,,space,4.99973472767,5,1,2.9497637921,2017_May_26_0911,60.0050608891,KRITL,002,31054,
,,,,,,,,"('TIMES', 'INCREASE', 'x', 'y')",increase,2,"(3, 6)",6,6,2,2,0,TIMES,0,BUxy,,,,,0,8,8,1,,,,,,space,3.99971233006,6,1,2.24992852006,2017_May_26_0911,60.0050608891,KRITL,002,31054,
,,,,,,,,"('THIRD', 'INCREASE', 'HALF', 'DIVIDE', 'x', 'y')",increase,4,"(4, 2, 3, 1)",1,1,2,8,half,third,DIVIDE,UUUBxy,,,,,0,9,9,16,,,,,,space,6.61627239198,1,1,4.76650261553,2017_May_26_0911,60.0050608891,KRITL,002,31054,
,,,,,,,,"('TIMES', 'THIRD', 'HALF', 'x', 'y')",third,3,"(3, 1, 5)",5,5,5,6,half,TIMES,0,BUUxy,,,,,0,10,10,5,,,,,,space,3.74975546286,5,1,3.88321543648,2017_May_26_0911,60.0050608891,KRITL,002,31054,
,,,,,,,,"('TRIPLE', 'HALF', 'DIVIDE', 'x', 'y')",half,3,"(2, 1, 3)",3,3,2,4,DIVIDE,triple,0,UUBxy,,,,,0,11,11,9,,,,,,space,4.9330785831,3,1,2.34999427805,2017_May_26_0911,60.0050608891,KRITL,002,31054,
,,,,,,,,"('SUBTRACT', 'HALF', 'INCREASE', 'TRIPLE', 'x', 'y')",half,4,"(15, 16, 8, 3)",3,3,5,5,increase,SUBTRACT,triple,BUUUxy,,,,,0,12,12,10,,,,,,space,7.58271194389,3,1,5.083096029,2017_May_26_0911,60.0050608891,KRITL,002,31054,
,,,,,,,,"('THIRD', 'ADD', 'INCREASE', 'x', 'y')",ADD,3,"(8, 15, 5)",5,5,7,7,increase,third,0,UBUxy,,,,,0,13,13,6,,,,,,space,2.04997618496,5,1,4.73313954682,2017_May_26_0911,60.0050608891,KRITL,002,31054,
,,,,,,,,"('INCREASE', 'DIVIDE', 'TRIPLE', 'DOUBLE', 'x', 'y')",DIVIDE,4,"(6, 18, 3, 4)",4,4,6,3,triple,increase,double,UBUUxy,,,,,0,14,14,12,,,,,,space,9.68268601177,4,1,6.7496427747,2017_May_26_0911,60.0050608891,KRITL,002,31054,
,,,,,,,,"('THIRD', 'ADD', 'x', 'y')",ADD,2,"(9, 3)",3,3,5,4,0,third,0,UBxy,,,,,0,15,15,2,,,,,,space,2.26663752645,3,1,3.2832639413,2017_May_26_0911,60.0050608891,KRITL,002,31054,
,,,,,,,,"('THIRD', 'SUBTRACT', 'x', 'y')",SUBTRACT,2,"(3, 1)",1,1,2,5,0,third,0,UBxy,,,,,0,16,16,3,,,,,,space,1.26672711712,1,1,1.46672704699,2017_May_26_0911,60.0050608891,KRITL,002,31054,
,,,,,,,,"('TIMES', 'DECREASE', 'x', 'y')",decrease,2,"(2, 4)",4,4,2,3,0,TIMES,0,BUxy,,,,,0,17,17,0,,,,,,space,1.46670289966,4,1,1.66671612835,2017_May_26_0911,60.0050608891,KRITL,002,31054,
,,,,,,,,"('ADD', 'TRIPLE', 'DOUBLE', 'DECREASE', 'x', 'y')",triple,4,"(1, 2, 6, 8)",8,8,2,2,double,ADD,decrease,BUUUxy,,,,,0,0,0,11,,,,,,space,4.96640665527,8,1,6.69968898734,2017_May_26_0911,60.0050608891,KRITL,002,31054,
,,,,,,,,"('DECREASE', 'SUBTRACT', 'DOUBLE', 'THIRD', 'x', 'y')",SUBTRACT,4,"(3, 6, 4, 3)",3,3,2,9,double,decrease,third,UBUUxy,,,,,0,1,1,13,,,,,,space,11.2992282254,2,0,7.06627643411,2017_May_26_0911,60.0050608891,KRITL,002,31054,
,,,,,,,,"('ADD', 'DECREASE', 'THIRD', 'DOUBLE', 'x', 'y')",decrease,4,"(18, 6, 5, 9)",9,9,4,9,third,ADD,double,BUUUxy,,,,,0,2,2,10,,,,,,space,14.3656134983,9,1,5.66637491388,2017_May_26_0911,60.0050608891,KRITL,002,31054,
,,,,,,,,"('DECREASE', 'TIMES', 'x', 'y')",TIMES,2,"(9, 8)",8,8,3,3,0,decrease,0,UBxy,,,,,0,3,3,2,,,,,,space,1.36670538434,8,1,3.39991131937,2017_May_26_0911,60.0050608891,KRITL,002,31054,
,,,,,,,,"('DECREASE', 'DOUBLE', 'TIMES', 'THIRD', 'x', 'y')",double,4,"(1, 3, 6, 5)",5,5,3,3,TIMES,decrease,third,UUBUxy,,,,,0,4,4,14,,,,,,space,9.26603733911,5,1,4.84979567374,2017_May_26_0911,60.0050608891,KRITL,002,31054,
,,,,,,,,"('DECREASE', 'TRIPLE', 'SUBTRACT', 'DOUBLE', 'x', 'y')",triple,4,"(6, 3, 9, 8)",8,8,3,3,SUBTRACT,decrease,double,UUBUxy,,,,,0,5,5,15,,,,,,space,8.3327813244,8,1,5.19975985494,2017_May_26_0911,60.0050608891,KRITL,002,31054,
,,,,,,,,"('THIRD', 'HALF', 'INCREASE', 'SUBTRACT', 'x', 'y')",half,4,"(5, 6, 3, 1)",1,1,2,7,increase,third,SUBTRACT,UUUBxy,,,,,0,6,6,17,,,,,,space,7.44950534403,1,1,4.71647463576,2017_May_26_0911,60.0050608891,KRITL,002,31054,
,,,,,,,,"('ADD', 'DECREASE', 'x', 'y')",decrease,2,"(2, 7)",7,7,5,3,0,ADD,0,BUxy,,,,,0,7,7,0,,,,,,space,1.4167246148,7,1,1.31672709947,2017_May_26_0911,60.0050608891,KRITL,002,31054,
,,,,,,,,"('HALF', 'ADD', 'x', 'y')",ADD,2,"(12, 6)",6,6,8,4,0,half,0,UBxy,,,,,0,8,8,3,,,,,,space,1.58337162505,6,1,2.15000589681,2017_May_26_0911,60.0050608891,KRITL,002,31054,
,,,,,,,,"('INCREASE', 'HALF', 'THIRD', 'TIMES', 'x', 'y')",half,4,"(12, 4, 2, 3)",3,3,4,3,third,increase,TIMES,UUUBxy,,,,,0,9,9,16,,,,,,space,2.9332070197,3,1,5.94971969677,2017_May_26_0911,60.0050608891,KRITL,002,31054,
,,,,,,,,"('DIVIDE', 'DECREASE', 'x', 'y')",decrease,2,"(8, 2)",2,2,4,9,0,DIVIDE,0,BUxy,,,,,0,10,10,1,,,,,,space,1.33336926298,2,1,1.38327860483,2017_May_26_0911,60.0050608891,KRITL,002,31054,
,,,,,,,,"('DOUBLE', 'SUBTRACT', 'INCREASE', 'x', 'y')",SUBTRACT,3,"(4, 1, 2)",2,2,3,3,increase,double,0,UBUxy,,,,,0,11,11,6,,,,,,space,2.43330938416,2,1,3.63322112337,2017_May_26_0911,60.0050608891,KRITL,002,31054,
,,,,,,,,"('DECREASE', 'ADD', 'THIRD', 'HALF', 'x', 'y')",ADD,4,"(3, 1, 7, 6)",6,6,6,6,third,decrease,half,UBUUxy,,,,,0,12,12,12,,,,,,space,3.24971679202,6,1,4.41654333379,2017_May_26_0911,60.0050608891,KRITL,002,31054,
,,,,,,,,"('ADD', 'TRIPLE', 'HALF', 'x', 'y')",triple,3,"(2, 6, 8)",8,8,2,4,half,ADD,0,BUUxy,,,,,0,13,13,5,,,,,,space,2.34994388325,8,1,3.48324497347,2017_May_26_0911,60.0050608891,KRITL,002,31054,
,,,,,,,,"('ADD', 'DOUBLE', 'DECREASE', 'x', 'y')",double,3,"(1, 2, 7)",7,7,5,2,decrease,ADD,0,BUUxy,,,,,0,14,14,4,,,,,,space,2.34996488108,7,1,3.7832182711,2017_May_26_0911,60.0050608891,KRITL,002,31054,
,,,,,,,,"('INCREASE', 'ADD', 'HALF', 'x', 'y')",ADD,3,"(1, 4, 5)",5,5,3,2,half,increase,0,UBUxy,,,,,0,15,15,7,,,,,,space,2.73326098407,5,1,2.68331174646,2017_May_26_0911,60.0050608891,KRITL,002,31054,
,,,,,,,,"('DOUBLE', 'THIRD', 'ADD', 'x', 'y')",third,3,"(9, 3, 6)",6,6,4,5,ADD,double,0,UUBxy,,,,,0,16,16,8,,,,,,space,2.64995602705,6,1,4.03318563709,2017_May_26_0911,60.0050608891,KRITL,002,31054,
,,,,,,,,"('HALF', 'INCREASE', 'TIMES', 'x', 'y')",increase,3,"(9, 10, 5)",5,5,3,3,TIMES,half,0,UUBxy,,,,,0,17,17,9,,,,,,space,5.18309109448,5,1,3.0165998179,2017_May_26_0911,60.0050608891,KRITL,002,31054,
,,,,,,,,"('INCREASE', 'DIVIDE', 'TRIPLE', 'x', 'y')",DIVIDE,3,"(6, 2, 3)",3,3,3,2,triple,increase,0,UBUxy,,,,,0,0,0,7,,,,,,space,4.48310603783,3,1,3.38334929757,2017_May_26_0911,60.0050608891,KRITL,002,31054,
,,,,,,,,"('INCREASE', 'DIVIDE', 'x', 'y')",DIVIDE,2,"(4, 5)",5,5,2,8,0,increase,0,UBxy,,,,,0,1,1,3,,,,,,space,1.71669966239,5,1,2.73330752947,2017_May_26_0911,60.0050608891,KRITL,002,31054,
,,,,,,,,"('DOUBLE', 'DIVIDE', 'x', 'y')",DIVIDE,2,"(1, 2)",2,2,8,8,0,double,0,UBxy,,,,,0,2,2,2,,,,,,space,2.36663399194,2,1,1.76671294356,2017_May_26_0911,60.0050608891,KRITL,002,31054,
,,,,,,,,"('TRIPLE', 'INCREASE', 'DIVIDE', 'DOUBLE', 'x', 'y')",increase,4,"(16, 2, 3, 9)",9,9,8,8,DIVIDE,triple,double,UUBUxy,,,,,0,3,3,15,,,,,,space,3.21654690336,9,1,5.38307002652,2017_May_26_0911,60.0050608891,KRITL,002,31054,
,,,,,,,,"('SUBTRACT', 'INCREASE', 'HALF', 'x', 'y')",increase,3,"(4, 5, 3)",3,3,2,8,half,SUBTRACT,0,BUUxy,,,,,0,4,4,5,,,,,,space,2.68328234949,3,1,2.79996367381,2017_May_26_0911,60.0050608891,KRITL,002,31054,
,,,,,,,,"('DIVIDE', 'DOUBLE', 'INCREASE', 'TRIPLE', 'x', 'y')",double,4,"(9, 10, 20, 5)",5,5,4,3,increase,DIVIDE,triple,BUUUxy,,,,,0,5,5,10,,,,,,space,2.68326485134,5,1,6.33300425112,2017_May_26_0911,60.0050608891,KRITL,002,31054,
,,,,,,,,"('THIRD', 'INCREASE', 'HALF', 'TIMES', 'x', 'y')",increase,4,"(28, 14, 15, 5)",5,5,4,7,half,third,TIMES,UUUBxy,,,,,0,6,6,17,,,,,,space,4.51645755768,5,1,6.66630282137,2017_May_26_0911,60.0050608891,KRITL,002,31054,
,,,,,,,,"('ADD', 'HALF', 'x', 'y')",half,2,"(2, 7)",7,7,5,4,0,ADD,0,BUxy,,,,,0,7,7,0,,,,,,space,1.33337031282,7,1,2.16667920724,2017_May_26_0911,60.0050608891,KRITL,002,31054,
,,,,,,,,"('INCREASE', 'TIMES', 'TRIPLE', 'HALF', 'x', 'y')",TIMES,4,"(1, 3, 6, 7)",7,7,2,2,triple,increase,half,UBUUxy,,,,,0,8,8,13,,,,,,space,3.46654366609,7,1,3.99986736383,2017_May_26_0911,60.0050608891,KRITL,002,31054,
,,,,,,,,"('TIMES', 'HALF', 'INCREASE', 'THIRD', 'x', 'y')",half,4,"(1, 2, 1, 9)",9,9,9,3,increase,TIMES,third,BUUUxy,,,,,0,9,9,11,,,,,,space,4.84974982846,9,1,5.23310612538,2017_May_26_0911,60.0050608891,KRITL,002,31054,
,,,,,,,,"('HALF', 'TIMES', 'DECREASE', 'x', 'y')",TIMES,3,"(8, 16, 8)",8,8,2,9,decrease,half,0,UBUxy,,,,,0,10,10,6,,,,,,space,4.83304782165,8,1,5.26642579841,2017_May_26_0911,60.0050608891,KRITL,002,31054,
,,,,,,,,"('TRIPLE', 'INCREASE', 'SUBTRACT', 'x', 'y')",increase,3,"(1, 2, 6)",6,6,2,3,SUBTRACT,triple,0,UUBxy,,,,,0,11,11,9,,,,,,space,3.11656198674,9,0,3.03325457987,2017_May_26_0911,60.0050608891,KRITL,002,31054,
,,,,,,,,"('TRIPLE', 'HALF', 'ADD', 'x', 'y')",half,3,"(6, 3, 9)",9,9,3,3,ADD,triple,0,UUBxy,,,,,0,12,12,8,,,,,,space,4.89975961018,9,1,3.86651202966,2017_May_26_0911,60.0050608891,KRITL,002,31054,
,,,,,,,,"('SUBTRACT', 'TRIPLE', 'x', 'y')",triple,2,"(12, 9)",9,9,3,4,0,SUBTRACT,0,BUxy,,,,,0,13,13,1,,,,,,space,1.81668597879,9,1,3.18324542837,2017_May_26_0911,60.0050608891,KRITL,002,31054,
,,,,,,,,"('HALF', 'SUBTRACT', 'DECREASE', 'TRIPLE', 'x', 'y')",SUBTRACT,4,"(15, 14, 10, 5)",5,5,4,5,decrease,half,triple,UBUUxy,,,,,0,14,14,12,,,,,,space,5.33304659673,5,1,10.8826141991,2017_May_26_0911,60.0050608891,KRITL,002,31054,
,,,,,,,,"('DECREASE', 'THIRD', 'DOUBLE', 'ADD', 'x', 'y')",third,4,"(9, 18, 6, 5)",5,5,4,5,double,decrease,ADD,UUUBxy,,,,,0,15,15,16,,,,,,space,4.64960781345,7,0,16.4487833693,2017_May_26_0911,60.0050608891,KRITL,002,31054,
,,,,,,,,"('TRIPLE', 'DOUBLE', 'SUBTRACT', 'INCREASE', 'x', 'y')",double,4,"(5, 1, 2, 6)",6,6,4,4,SUBTRACT,triple,increase,UUBUxy,,,,,0,16,16,14,,,,,,space,6.56626646011,6,1,4.28316105227,2017_May_26_0911,60.0050608891,KRITL,002,31054,
,,,,,,,,"('DIVIDE', 'TRIPLE', 'DECREASE', 'x', 'y')",triple,3,"(6, 18, 9)",9,9,2,7,decrease,DIVIDE,0,BUUxy,,,,,0,17,17,4,,,,,,space,3.51652825042,9,1,7.16624875204,2017_May_26_0911,60.0050608891,KRITL,002,31054,
,,,,,,,,"('DOUBLE', 'TRIPLE', 'SUBTRACT', 'x', 'y')",triple,3,"(1, 3, 6)",6,6,3,4,SUBTRACT,double,0,UUBxy,,,,,0,0,0,9,,,,,,space,3.7998432864,6,1,10.7824340032,2017_May_26_0911,60.0050608891,KRITL,002,31054,
,,,,,,,,"('DECREASE', 'THIRD', 'TIMES', 'HALF', 'x', 'y')",third,4,"(2, 12, 4, 3)",3,3,6,4,TIMES,decrease,half,UUBUxy,,,,,0,1,1,14,,,,,,space,8.79927004618,3,1,4.79962945869,2017_May_26_0911,60.0050608891,KRITL,002,31054,
,,,,,,,,"('ADD', 'DOUBLE', 'x', 'y')",double,2,"(4, 8)",8,8,4,2,0,ADD,0,BUxy,,,,,0,2,2,0,,,,,,space,1.38342943904,8,1,1.39999321057,2017_May_26_0911,60.0050608891,KRITL,002,31054,
,,,,,,,,"('DOUBLE', 'DECREASE', 'SUBTRACT', 'x', 'y')",decrease,3,"(5, 4, 8)",8,8,2,7,SUBTRACT,double,0,UUBxy,,,,,0,3,3,8,,,,,,space,2.91652391083,8,1,3.19994428568,2017_May_26_0911,60.0050608891,KRITL,002,31054,
,,,,,,,,"('DOUBLE', 'DECREASE', 'TRIPLE', 'DIVIDE', 'x', 'y')",decrease,4,"(1, 3, 2, 4)",4,4,4,4,triple,double,DIVIDE,UUUBxy,,,,,0,4,4,17,,,,,,space,7.54953540605,4,1,5.43305671052,2017_May_26_0911,60.0050608891,KRITL,002,31054,
,,,,,,,,"('HALF', 'SUBTRACT', 'TRIPLE', 'x', 'y')",SUBTRACT,3,"(9, 2, 1)",1,1,7,3,triple,half,0,UBUxy,,,,,0,5,5,6,,,,,,space,5.31638833485,1,1,3.98321050196,2017_May_26_0911,60.0050608891,KRITL,002,31054,
,,,,,,,,"('DIVIDE', 'DOUBLE', 'x', 'y')",double,2,"(12, 2)",2,2,6,6,0,DIVIDE,0,BUxy,,,,,0,6,6,1,,,,,,space,1.76666604844,2,1,2.26658258191,2017_May_26_0911,60.0050608891,KRITL,002,31054,
,,,,,,,,"('DOUBLE', 'TRIPLE', 'DIVIDE', 'DECREASE', 'x', 'y')",triple,4,"(8, 1, 3, 6)",6,6,8,9,DIVIDE,double,decrease,UUBUxy,,,,,0,7,7,15,,,,,,None,,None,0,,2017_May_26_0911,60.0050608891,KRITL,002,31054,
,,,,,,,,"('DIVIDE', 'DOUBLE', 'THIRD', 'x', 'y')",double,3,"(2, 4, 1)",1,1,4,6,third,DIVIDE,0,BUUxy,,,,,0,8,8,4,,,,,,space,4.11648324504,1,1,3.66654114635,2017_May_26_0911,60.0050608891,KRITL,002,31054,
,,,,,,,,"('ADD', 'THIRD', 'INCREASE', 'HALF', 'x', 'y')",third,4,"(2, 3, 1, 7)",7,7,6,4,increase,ADD,half,BUUUxy,,,,,0,9,9,10,,,,,,space,8.0495110834,7,1,4.21646991139,2017_May_26_0911,60.0050608891,KRITL,002,31054,
,,,,,,,,"('SUBTRACT', 'HALF', 'TRIPLE', 'x', 'y')",half,3,"(12, 6, 2)",2,2,4,4,triple,SUBTRACT,0,BUUxy,,,,,0,10,10,5,,,,,,space,2.94989397866,2,1,6.84965393855,2017_May_26_0911,60.0050608891,KRITL,002,31054,
,,,,,,,,"('DIVIDE', 'INCREASE', 'DOUBLE', 'THIRD', 'x', 'y')",increase,4,"(2, 4, 5, 1)",1,1,5,6,double,DIVIDE,third,BUUUxy,,,,,0,11,11,11,,,,,,space,5.1996503165,1,1,17.5154384638,2017_May_26_0911,60.0050608891,KRITL,002,31054,
,,,,,,,,"('INCREASE', 'DIVIDE', 'THIRD', 'x', 'y')",DIVIDE,3,"(3, 1, 2)",2,2,3,9,third,increase,0,UBUxy,,,,,0,12,12,7,,,,,,space,3.81650994718,2,1,3.13322234806,2017_May_26_0911,60.0050608891,KRITL,002,31054,
,,,,,,,,"('HALF', 'TIMES', 'x', 'y')",TIMES,2,"(16, 8)",8,8,4,4,0,half,0,UBxy,,,,,0,13,13,3,,,,,,space,0.983400882222,8,1,2.73336632317,2017_May_26_0911,60.0050608891,KRITL,002,31054,
,,,,,,,,"('DECREASE', 'ADD', 'DOUBLE', 'THIRD', 'x', 'y')",ADD,4,"(3, 6, 10, 9)",9,9,4,9,double,decrease ,third,UBUUxy,,,,,0,14,14,12,,,,,,space,4.81638256065,9,1,5.59974221699,2017_May_26_0911,60.0050608891,KRITL,002,31054,
,,,,,,,,"('DECREASE', 'TIMES', 'DOUBLE', 'THIRD', 'x', 'y')",TIMES,4,"(1, 2, 8, 7)",7,7,4,3,double,decrease,third,UBUUxy,,,,,0,15,15,13,,,,,,space,3.0165704207,7,1,4.4165184861,2017_May_26_0911,60.0050608891,KRITL,002,31054,
,,,,,,,,"('DECREASE', 'HALF', 'TRIPLE', 'DIVIDE', 'x', 'y')",half,4,"(4, 12, 6, 5)",5,5,2,8,triple,decrease,DIVIDE,UUUBxy,,,,,0,16,16,16,,,,,,space,5.36640756554,5,1,4.48315223306,2017_May_26_0911,60.0050608891,KRITL,002,31054,
,,,,,,,,"('DOUBLE', 'SUBTRACT', 'x', 'y')",SUBTRACT,2,"(1, 2)",2,2,7,8,0,double,0,UBxy,,,,,0,17,17,2,,,,,,space,1.86665971414,2,1,1.60007433221,2017_May_26_0911,60.0050608891,KRITL,002,31054,
,,,,,,,,"('DIVIDE', 'THIRD', 'x', 'y')",third,2,"(3, 1)",1,1,3,9,0,DIVIDE,0,BUxy,,,,,0,0,0,0,,,,,,space,1.41665812163,1,1,2.23335809913,2017_May_26_0911,60.0050608891,KRITL,002,31054,
,,,,,,,,"('DOUBLE', 'THIRD', 'TIMES', 'x', 'y')",third,3,"(12, 4, 8)",8,8,6,2,TIMES,double,0,UUBxy,,,,,0,1,1,9,,,,,,space,3.7165075324,8,1,5.64973205049,2017_May_26_0911,60.0050608891,KRITL,002,31054,
,,,,,,,,"('TIMES', 'DOUBLE', 'x', 'y')",double,2,"(4, 8)",8,8,2,2,0,TIMES,0,BUxy,,,,,0,2,2,1,,,,,,space,1.30004224065,8,1,1.80004731496,2017_May_26_0911,60.0050608891,KRITL,002,31054,
,,,,,,,,"('DECREASE', 'TRIPLE', 'HALF', 'SUBTRACT', 'x', 'y')",triple,4,"(4, 2, 6, 5)",5,5,2,6,half,decrease,SUBTRACT,UUUBxy,,,,,0,3,3,16,,,,,,space,5.04976620688,5,1,3.44989835308,2017_May_26_0911,60.0050608891,KRITL,002,31054,
,,,,,,,,"('INCREASE', 'SUBTRACT', 'x', 'y')",SUBTRACT,2,"(3, 4)",4,4,3,6,0,increase,0,UBxy,,,,,0,4,4,2,,,,,,space,0.850084743695,4,1,1.23343089153,2017_May_26_0911,60.0050608891,KRITL,002,31054,
,,,,,,,,"('DECREASE', 'TRIPLE', 'DIVIDE', 'DOUBLE', 'x', 'y')",triple,4,"(6, 2, 6, 5)",5,5,3,3,DIVIDE,decrease,double,UUBUxy,,,,,0,5,5,14,,,,,,space,2.16671630321,5,1,5.63307238882,2017_May_26_0911,60.0050608891,KRITL,002,31054,
,,,,,,,,"('THIRD', 'TIMES', 'HALF', 'x', 'y')",TIMES,3,"(3, 18, 6)",6,6,6,6,half,third,0,UBUxy,,,,,0,6,6,7,,,,,,space,2.63328131707,6,1,4.2498466284,2017_May_26_0911,60.0050608891,KRITL,002,31054,
,,,,,,,,"('SUBTRACT', 'TRIPLE', 'DECREASE', 'x', 'y')",triple,3,"(4, 12, 3)",3,3,9,5,decrease,SUBTRACT,0,BUUxy,,,,,0,7,7,4,,,,,,space,4.63311473443,3,1,4.31631239271,2017_May_26_0911,60.0050608891,KRITL,002,31054,
,,,,,,,,"('THIRD', 'DIVIDE', 'x', 'y')",DIVIDE,2,"(3, 1)",1,1,2,6,0,third,0,UBxy,,,,,0,8,8,3,,,,,,space,1.0167387533,1,1,2.03336656815,2017_May_26_0911,60.0050608891,KRITL,002,31054,
,,,,,,,,"('DOUBLE', 'DECREASE', 'ADD', 'x', 'y')",decrease,3,"(4, 3, 6)",6,6,2,2,ADD,double,0,UUBxy,,,,,0,9,9,8,,,,,,space,2.29978571739,6,1,2.39979793108,2017_May_26_0911,60.0050608891,KRITL,002,31054,
,,,,,,,,"('TIMES', 'HALF', 'INCREASE', 'x', 'y')",half,3,"(6, 3, 9)",9,9,3,5,increase,TIMES,0,BUUxy,,,,,0,10,10,5,,,,,,space,2.84993950883,9,1,13.0657920847,2017_May_26_0911,60.0050608891,KRITL,002,31054,
,,,,,,,,"('THIRD', 'DIVIDE', 'DECREASE', 'x', 'y')",DIVIDE,3,"(6, 3, 1)",1,1,2,7,decrease,third,0,UBUxy,,,,,0,11,11,6,,,,,,space,2.68306327239,1,1,4.6664806027,2017_May_26_0911,60.0050608891,KRITL,002,31054,
,,,,,,,,"('DOUBLE', 'DIVIDE', 'TRIPLE', 'INCREASE', 'x', 'y')",DIVIDE,4,"(5, 15, 3, 6)",6,6,5,4,triple,double,increase,UBUUxy,,,,,0,12,12,12,,,,,,space,5.44969852385,6,1,5.7663731291,2017_May_26_0911,60.0050608891,KRITL,002,31054,
,,,,,,,,"('SUBTRACT', 'DOUBLE', 'TRIPLE', 'DECREASE', 'x', 'y')",double,4,"(2, 6, 12, 8)",8,8,4,3,triple,SUBTRACT,decrease,BUUUxy,,,,,0,13,13,10,,,,,,space,6.74960672855,None,0,,2017_May_26_0911,60.0050608891,KRITL,002,31054,
,,,,,,,,"('THIRD', 'DECREASE', 'TIMES', 'HALF', 'x', 'y')",decrease,4,"(4, 16, 15, 5)",5,5,4,8,TIMES,third,half,UUBUxy,,,,,0,14,14,15,,,,,,space,4.68308846978,5,1,5.01645108336,2017_May_26_0911,60.0050608891,KRITL,002,31054,
,,,,,,,,"('SUBTRACT', 'TRIPLE', 'DECREASE', 'DOUBLE', 'x', 'y')",triple,4,"(4, 3, 9, 1)",1,1,8,2,decrease,SUBTRACT,double,BUUUxy,,,,,0,15,15,11,,,,,,space,4.94974209438,1,1,4.89999653539,2017_May_26_0911,60.0050608891,KRITL,002,31054,
,,,,,,,,"('HALF', 'TRIPLE', 'INCREASE', 'SUBTRACT', 'x', 'y')",triple,4,"(1, 2, 6, 3)",3,3,2,3,increase,half,SUBTRACT,UUUBxy,,,,,0,16,16,17,,,,,,space,3.24974898854,3,1,12.2825157195,2017_May_26_0911,60.0050608891,KRITL,002,31054,
,,,,,,,,"('INCREASE', 'ADD', 'HALF', 'TRIPLE', 'x', 'y')",ADD,4,"(6, 3, 6, 7)",7,7,3,2,half,increase,triple,UBUUxy,,,,,0,17,17,13,,,,,,space,5.26639220188,4,0,15.3155190258,2017_May_26_0911,60.0050608891,KRITL,002,31054,
,,,,,,,,"('SUBTRACT', 'DOUBLE', 'DECREASE', 'x', 'y')",double,3,"(8, 16, 7)",7,7,9,9,decrease,SUBTRACT,0,BUUxy,,,,,0,0,0,5,,,,,,space,2.24996736599,7,1,10.8992910089,2017_May_26_0911,60.0050608891,KRITL,002,31054,
,,,,,,,,"('INCREASE', 'DIVIDE', 'HALF', 'x', 'y')",DIVIDE,3,"(2, 1, 2)",2,2,2,4,half,increase,0,UBUxy,,,,,0,1,1,7,,,,,,space,5.71633780003,2,1,5.73304085713,2017_May_26_0911,60.0050608891,KRITL,002,31054,
,,,,,,,,"('TIMES', 'THIRD', 'x', 'y')",third,2,"(1, 4)",4,4,4,3,0,TIMES,0,BUxy,,,,,0,2,2,1,,,,,,space,1.30003804108,4,1,1.73329283088,2017_May_26_0911,60.0050608891,KRITL,002,31054,
,,,,,,,,"('TIMES', 'DECREASE', 'THIRD', 'DOUBLE', 'x', 'y')",decrease,4,"(6, 2, 1, 2)",2,2,2,3,third,TIMES,double,BUUUxy,,,,,0,3,3,11,,,,,,space,8.46610901156,9,0,10.3493331971,2017_May_26_0911,60.0050608891,KRITL,002,31054,
,,,,,,,,"('SUBTRACT', 'THIRD', 'x', 'y')",third,2,"(3, 1)",1,1,2,9,0,SUBTRACT,0,BUxy,,,,,0,4,4,0,,,,,,space,3.43318724702,1,1,1.96671042382,2017_May_26_0911,60.0050608891,KRITL,002,31054,
,,,,,,,,"('DOUBLE', 'TIMES', 'THIRD', 'x', 'y')",TIMES,3,"(1, 4, 8)",8,8,4,3,third,double,0,UBUxy,,,,,0,5,5,6,,,,,,space,4.18314638874,8,1,6.8329704795,2017_May_26_0911,60.0050608891,KRITL,002,31054,
,,,,,,,,"('TRIPLE', 'SUBTRACT', 'INCREASE', 'HALF', 'x', 'y')",SUBTRACT,4,"(3, 4, 1, 3)",3,3,3,6,increase,triple,half,UBUUxy,,,,,0,6,6,13,,,,,,space,8.3161416105,3,1,3.89987824764,2017_May_26_0911,60.0050608891,KRITL,002,31054,
,,,,,,,,"('DECREASE', 'HALF', 'DIVIDE', 'x', 'y')",half,3,"(4, 2, 1)",1,1,2,8,DIVIDE,decrease,0,UUBxy,,,,,0,7,7,8,,,,,,space,2.01646053232,1,1,3.58328133449,2017_May_26_0911,60.0050608891,KRITL,002,31054,
,,,,,,,,"('TRIPLE', 'HALF', 'TIMES', 'x', 'y')",half,3,"(6, 3, 9)",9,9,3,2,TIMES,triple,0,UUBxy,,,,,0,8,8,9,,,,,,space,2.98323429935,9,1,6.76625939086,2017_May_26_0911,60.0050608891,KRITL,002,31054,
,,,,,,,,"('THIRD', 'INCREASE', 'SUBTRACT', 'HALF', 'x', 'y')",increase,4,"(4, 2, 3, 1)",1,1,2,8,SUBTRACT,third,half,UUBUxy,,,,,0,9,9,15,,,,,,space,17.5653590048,1,1,4.1331712536,2017_May_26_0911,60.0050608891,KRITL,002,31054,
,,,,,,,,"('INCREASE', 'HALF', 'TIMES', 'TRIPLE', 'x', 'y')",half,4,"(6, 12, 6, 7)",7,7,2,2,TIMES,increase,triple,UUBUxy,,,,,0,10,10,14,,,,,,space,4.3831365197,7,1,6.03303480288,2017_May_26_0911,60.0050608891,KRITL,002,31054,
,,,,,,,,"('ADD', 'DECREASE', 'HALF', 'x', 'y')",decrease,3,"(3, 2, 6)",6,6,4,6,half,ADD,0,BUUxy,,,,,0,11,11,4,,,,,,space,2.56662937207,6,1,3.54988991888,2017_May_26_0911,60.0050608891,KRITL,002,31054,
,,,,,,,,"('INCREASE', 'TIMES', 'x', 'y')",TIMES,2,"(8, 9)",9,9,4,2,0,increase,0,UBxy,,,,,0,12,12,2,,,,,,space,1.10025333846,9,1,2.20001742826,2017_May_26_0911,60.0050608891,KRITL,002,31054,
,,,,,,,,"('DECREASE', 'HALF', 'TRIPLE', 'ADD', 'x', 'y')",half,4,"(4, 12, 6, 5)",5,5,2,2,triple,decrease,ADD,UUUBxy,,,,,0,13,13,16,,,,,,space,11.0325627022,5,1,5.44973666989,2017_May_26_0911,60.0050608891,KRITL,002,31054,
,,,,,,,,"('DIVIDE', 'DECREASE', 'THIRD', 'DOUBLE', 'x', 'y')",decrease,4,"(12, 4, 3, 1)",1,1,3,6,third,DIVIDE,double,BUUUxy,,,,,0,14,14,10,,,,,,space,7.21622073743,1,1,5.13309881114,2017_May_26_0911,60.0050608891,KRITL,002,31054,
,,,,,,,,"('DECREASE', 'DIVIDE', 'TRIPLE', 'DOUBLE', 'x', 'y')",DIVIDE,4,"(6, 18, 2, 1)",1,1,9,3,triple,decrease,double,UBUUxy,,,,,0,15,15,12,,,,,,space,4.61643547495,1,1,6.38299758406,2017_May_26_0911,60.0050608891,KRITL,002,31054,
,,,,,,,,"('INCREASE', 'TRIPLE', 'HALF', 'ADD', 'x', 'y')",triple,4,"(4, 2, 6, 7)",7,7,2,2,half,increase,ADD,UUUBxy,,,,,0,16,16,17,,,,,,space,4.91640562308,7,1,7.4995616707,2017_May_26_0911,60.0050608891,KRITL,002,31054,
,,,,,,,,"('TRIPLE', 'SUBTRACT', 'x', 'y')",SUBTRACT,2,"(2, 6)",6,6,6,8,0,triple,0,UBxy,,,,,0,17,17,3,,,,,,space,1.76666919817,3,0,7.43290342647,2017_May_26_0911,60.0050608891,KRITL,002,31054,
,,,,,,,,"('INCREASE', 'TRIPLE', 'DIVIDE', 'x', 'y')",triple,3,"(2, 6, 7)",7,7,3,6,DIVIDE,increase,0,UUBxy,,,,,0,0,0,8,,,,,,space,6.24944382044,7,1,3.31658501434,2017_May_26_0911,60.0050608891,KRITL,002,31054,
,,,,,,,,"('THIRD', 'DOUBLE', 'ADD', 'DECREASE', 'x', 'y')",double,4,"(5, 12, 24, 8)",8,8,7,6,ADD,third,decrease,UUBUxy,,,,,0,1,1,14,,,,,,space,8.21613674611,8,1,6.26633970742,2017_May_26_0911,60.0050608891,KRITL,002,31054,
,,,,,,,,"('HALF', 'TRIPLE', 'INCREASE', 'DIVIDE', 'x', 'y')",triple,4,"(3, 4, 12, 6)",6,6,3,9,increase,half,DIVIDE,UUUBxy,,,,,0,2,2,16,,,,,,space,11.9324710467,6,1,3.88323048502,2017_May_26_0911,60.0050608891,KRITL,002,31054,
,,,,,,,,"('DIVIDE', 'INCREASE', 'x', 'y')",increase,2,"(4, 2)",2,2,2,3,0,DIVIDE,0,BUxy,,,,,0,3,3,0,,,,,,space,1.51665983652,2,1,2.59999384079,2017_May_26_0911,60.0050608891,KRITL,002,31054,
,,,,,,,,"('DECREASE', 'DIVIDE', 'x', 'y')",DIVIDE,2,"(2, 1)",1,1,4,8,0,decrease,0,UBxy,,,,,0,4,4,2,,,,,,space,2.26666202396,1,1,2.09999051597,2017_May_26_0911,60.0050608891,KRITL,002,31054,
,,,,,,,,"('THIRD', 'HALF', 'ADD', 'x', 'y')",half,3,"(6, 3, 1)",1,1,3,3,ADD,third,0,UUBxy,,,,,0,5,5,9,,,,,,space,3.71655022819,1,1,3.39987947256,2017_May_26_0911,60.0050608891,KRITL,002,31054,
,,,,,,,,"('SUBTRACT', 'DECREASE', 'x', 'y')",decrease,2,"(5, 3)",3,3,2,6,0,SUBTRACT,0,BUxy,,,,,0,6,6,1,,,,,,space,1.20005172468,3,1,5.13310021115,2017_May_26_0911,60.0050608891,KRITL,002,31054,
,,,,,,,,"('THIRD', 'DOUBLE', 'INCREASE', 'TIMES', 'x', 'y')",double,4,"(8, 9, 18, 6)",6,6,4,2,increase,third,TIMES,UUUBxy,,,,,0,7,7,17,,,,,,space,6.24962545163,6,1,11.5825541103,2017_May_26_0911,60.0050608891,KRITL,002,31054,
,,,,,,,,"('ADD', 'HALF', 'THIRD', 'x', 'y')",half,3,"(2, 1, 9)",9,9,8,6,third,ADD,0,BUUxy,,,,,0,8,8,4,,,,,,space,1.76666639838,9,1,3.4998993855,2017_May_26_0911,60.0050608891,KRITL,002,31054,
,,,,,,,,"('INCREASE', 'ADD', 'x', 'y')",ADD,2,"(5, 6)",6,6,2,3,0,increase,0,UBxy,,,,,0,9,9,3,,,,,,space,2.73328968114,6,1,4.51628642553,2017_May_26_0911,60.0050608891,KRITL,002,31054,
,,,,,,,,"('HALF', 'ADD', 'TRIPLE', 'x', 'y')",ADD,3,"(9, 12, 6)",6,6,3,3,triple,half,0,UBUxy,,,,,0,10,10,6,,,,,,space,4.91643606988,6,1,11.4159147993,2017_May_26_0911,60.0050608891,KRITL,002,31054,
,,,,,,,,"('THIRD', 'TIMES', 'DOUBLE', 'DECREASE', 'x', 'y')",TIMES,4,"(1, 2, 6, 2)",2,2,3,2,double,third,decrease,UBUUxy,,,,,0,11,11,13,,,,,,space,8.01632544631,2,1,6.11634115968,2017_May_26_0911,60.0050608891,KRITL,002,31054,
,,,,,,,,"('ADD', 'DOUBLE', 'DECREASE', 'THIRD', 'x', 'y')",double,4,"(2, 1, 2, 8)",8,8,6,6,decrease,ADD,third,BUUUxy,,,,,0,12,12,10,,,,,,space,5.39970974019,8,1,6.93294139765,2017_May_26_0911,60.0050608891,KRITL,002,31054,
,,,,,,,,"('THIRD', 'INCREASE', 'DIVIDE', 'DOUBLE', 'x', 'y')",increase,4,"(18, 2, 3, 1)",1,1,9,9,DIVIDE,third,double,UUBUxy,,,,,0,13,13,15,,,,,,space,6.33299375209,1,1,7.23295354121,2017_May_26_0911,60.0050608891,KRITL,002,31054,
,,,,,,,,"('INCREASE', 'SUBTRACT', 'HALF', 'x', 'y')",SUBTRACT,3,"(4, 2, 3)",3,3,2,8,half,increase,0,UBUxy,,,,,0,14,14,7,,,,,,space,5.349754903,3,1,2.86662821728,2017_May_26_0911,60.0050608891,KRITL,002,31054,
,,,,,,,,"('DIVIDE', 'DECREASE', 'TRIPLE', 'x', 'y')",decrease,3,"(9, 8, 4)",4,4,2,3,triple,DIVIDE,0,BUUxy,,,,,0,15,15,5,,,,,,space,4.73310245061,4,1,3.76655091043,2017_May_26_0911,60.0050608891,KRITL,002,31054,
,,,,,,,,"('SUBTRACT', 'DECREASE', 'TRIPLE', 'DOUBLE', 'x', 'y')",decrease,4,"(6, 18, 17, 8)",8,8,9,3,triple,SUBTRACT,double,BUUUxy,,,,,0,16,16,11,,,,,,space,5.79962490918,1,0,14.3989762168,2017_May_26_0911,60.0050608891,KRITL,002,31054,
,,,,,,,,"('DOUBLE', 'ADD', 'INCREASE', 'THIRD', 'x', 'y')",ADD,4,"(1, 2, 4, 8)",8,8,2,3,increase,double,third,UBUUxy,,,,,0,17,17,12,,,,,,space,7.24954740983,8,1,6.59985035565,2017_May_26_0911,60.0050608891,KRITL,002,31054,
