operationc,operationb,operationa,correctresponse,valuey,operationd,condition,valuex,Rule,Operatora,Length,Intermediate,CorrectResponse,Result,Y,X,Operatorc,Operatorb,Operatord,Structure,practice_trials.thisRepN,practice_trials.thisTrialN,practice_trials.thisN,practice_trials.thisIndex,block.thisRepN,block.thisTrialN,block.thisN,block.thisIndex,practice_encoding.keys,practice_encoding.rt,practice_execution.keys,practice_execution.corr,practice_execution.rt,encoding.keys,encoding.rt,execution.keys,execution.corr,execution.rt,date,frameRate,expName,session,participant,
0,ADD,decrease,7,5,0,2,3,,,,,,,,,,,,,0,0,0,0,,,,,['space'],[4.099754990558722],2,0,5.23280270703,,,,,,2017_May_12_0908,60.0050608996,KRITL,001,31050,
increase,DIVIDE,double,9,8,triple,4,8,,,,,,,,,,,,,0,1,1,5,,,,,['space'],[12.64908881757583],None,0,,,,,,,2017_May_12_0908,60.0050608996,KRITL,001,31050,
increase,DIVIDE,triple,3,3,0,3,2,,,,,,,,,,,,,0,2,2,4,,,,,['space'],[9.399304132617544],3,1,8.08279261058,,,,,,2017_May_12_0908,60.0050608996,KRITL,001,31050,
0,ADD,half,7,5,0,2,4,,,,,,,,,,,,,0,3,3,2,,,,,['space'],[4.016430085524917],7,1,2.49986403919,,,,,,2017_May_12_0908,60.0050608996,KRITL,001,31050,
ADD,triple ,half,8,2,0,3,4,,,,,,,,,,,,,0,4,4,3,,,,,['space'],[5.932984793034848],8,1,6.96612598475,,,,,,2017_May_12_0908,60.0050608996,KRITL,001,31050,
0,decrease,TIMES,8,3,0,2,3,,,,,,,,,,,,,0,5,5,1,,,,,['space'],[3.2331855670781806],8,1,1.41656608133,,,,,,2017_May_12_0908,60.0050608996,KRITL,001,31050,
,,,,,,,,"('THIRD', 'DOUBLE', 'ADD', 'DECREASE', 'x', 'y')",double,4,"(5, 12, 24, 8)",8,8,7,6,ADD,third,decrease,UUBUxy,,,,,0,0,0,14,,,,,,space,8.68274445563,5,0,14.0821675758,2017_May_12_0908,60.0050608996,KRITL,001,31050,
,,,,,,,,"('ADD', 'HALF', 'THIRD', 'x', 'y')",half,3,"(2, 1, 9)",9,9,8,6,third,ADD,0,BUUxy,,,,,0,1,1,4,,,,,,space,6.26629351226,9,1,5.33317083362,2017_May_12_0908,60.0050608996,KRITL,001,31050,
,,,,,,,,"('SUBTRACT', 'DECREASE', 'x', 'y')",decrease,2,"(5, 3)",3,3,2,6,0,SUBTRACT,0,BUxy,,,,,0,2,2,1,,,,,,space,3.76648651712,3,1,2.09997931715,2017_May_12_0908,60.0050608996,KRITL,001,31050,
,,,,,,,,"('THIRD', 'DOUBLE', 'INCREASE', 'TIMES', 'x', 'y')",double,4,"(8, 9, 18, 6)",6,6,4,2,increase,third,TIMES,UUUBxy,,,,,0,3,3,17,,,,,,space,7.0995936574,6,1,10.8492329326,2017_May_12_0908,60.0050608996,KRITL,001,31050,
,,,,,,,,"('THIRD', 'TIMES', 'DOUBLE', 'DECREASE', 'x', 'y')",TIMES,4,"(1, 2, 6, 2)",2,2,3,2,double,third,decrease,UBUUxy,,,,,0,4,4,13,,,,,,space,5.74969316952,2,1,6.43283938321,2017_May_12_0908,60.0050608996,KRITL,001,31050,
,,,,,,,,"('THIRD', 'HALF', 'ADD', 'x', 'y')",half,3,"(6, 3, 1)",1,1,3,3,ADD,third,0,UUBxy,,,,,0,5,5,9,,,,,,space,3.63323757166,1,1,4.43305776043,2017_May_12_0908,60.0050608996,KRITL,001,31050,
,,,,,,,,"('ADD', 'DOUBLE', 'DECREASE', 'THIRD', 'x', 'y')",double,4,"(2, 1, 2, 8)",8,8,6,6,decrease,ADD,third,BUUUxy,,,,,0,6,6,10,,,,,,space,7.46617165499,8,1,5.8829659125,2017_May_12_0908,60.0050608996,KRITL,001,31050,
,,,,,,,,"('DOUBLE', 'ADD', 'INCREASE', 'THIRD', 'x', 'y')",ADD,4,"(1, 2, 4, 8)",8,8,2,3,increase,double,third,UBUUxy,,,,,0,7,7,12,,,,,,space,6.59956583531,2,0,7.49959071771,2017_May_12_0908,60.0050608996,KRITL,001,31050,
,,,,,,,,"('DIVIDE', 'INCREASE', 'x', 'y')",increase,2,"(4, 2)",2,2,2,3,0,DIVIDE,0,BUxy,,,,,0,8,8,0,,,,,,space,2.68325645218,2,1,2.28335878151,2017_May_12_0908,60.0050608996,KRITL,001,31050,
,,,,,,,,"('SUBTRACT', 'DECREASE', 'TRIPLE', 'DOUBLE', 'x', 'y')",decrease,4,"(6, 18, 17, 8)",8,8,9,3,triple,SUBTRACT,double,BUUUxy,,,,,0,9,9,11,,,,,,space,7.03281957528,2,0,10.4826276378,2017_May_12_0908,60.0050608996,KRITL,001,31050,
,,,,,,,,"('HALF', 'ADD', 'TRIPLE', 'x', 'y')",ADD,3,"(9, 12, 6)",6,6,3,3,triple,half,0,UBUxy,,,,,0,10,10,6,,,,,,space,4.14984806336,6,1,4.89059581634,2017_May_12_0908,60.0050608996,KRITL,001,31050,
,,,,,,,,"('DECREASE', 'DIVIDE', 'x', 'y')",DIVIDE,2,"(2, 1)",1,1,4,8,0,decrease,0,UBxy,,,,,0,11,11,2,,,,,,space,2.19999153088,1,1,2.83321090444,2017_May_12_0908,60.0050608996,KRITL,001,31050,
,,,,,,,,"('INCREASE', 'SUBTRACT', 'HALF', 'x', 'y')",SUBTRACT,3,"(4, 2, 3)",3,3,2,8,half,increase,0,UBUxy,,,,,0,12,12,7,,,,,,space,4.96624217264,4,0,9.19942319019,2017_May_12_0908,60.0050608996,KRITL,001,31050,
,,,,,,,,"('THIRD', 'INCREASE', 'DIVIDE', 'DOUBLE', 'x', 'y')",increase,4,"(18, 2, 3, 1)",1,1,9,9,DIVIDE,third,double,UUBUxy,,,,,0,13,13,15,,,,,,space,5.16616721045,1,1,5.59968797256,2017_May_12_0908,60.0050608996,KRITL,001,31050,
,,,,,,,,"('DIVIDE', 'DECREASE', 'TRIPLE', 'x', 'y')",decrease,3,"(9, 8, 4)",4,4,2,3,triple,DIVIDE,0,BUUxy,,,,,0,14,14,5,,,,,,space,6.38299443453,4,1,6.41631760725,2017_May_12_0908,60.0050608996,KRITL,001,31050,
,,,,,,,,"('INCREASE', 'ADD', 'x', 'y')",ADD,2,"(5, 6)",6,6,2,3,0,increase,0,UBxy,,,,,0,15,15,3,,,,,,space,1.76648161764,6,1,5.18310159334,2017_May_12_0908,60.0050608996,KRITL,001,31050,
,,,,,,,,"('INCREASE', 'TRIPLE', 'DIVIDE', 'x', 'y')",triple,3,"(2, 6, 7)",7,7,3,6,DIVIDE,increase,0,UUBxy,,,,,0,16,16,8,,,,,,space,4.51648100521,7,1,3.69995320989,2017_May_12_0908,60.0050608996,KRITL,001,31050,
,,,,,,,,"('HALF', 'TRIPLE', 'INCREASE', 'DIVIDE', 'x', 'y')",triple,4,"(3, 4, 12, 6)",6,6,3,9,increase,half,DIVIDE,UUUBxy,,,,,0,17,17,16,,,,,,space,6.0496857153,6,1,5.33293565817,2017_May_12_0908,60.0050608996,KRITL,001,31050,
,,,,,,,,"('DIVIDE', 'DOUBLE', 'INCREASE', 'TRIPLE', 'x', 'y')",double,4,"(9, 10, 20, 5)",5,5,4,3,increase,DIVIDE,triple,BUUUxy,,,,,0,0,0,10,,,,,,space,5.9996080409,5,1,7.18293851036,2017_May_12_0908,60.0050608996,KRITL,001,31050,
,,,,,,,,"('TIMES', 'HALF', 'INCREASE', 'THIRD', 'x', 'y')",half,4,"(1, 2, 1, 9)",9,9,9,3,increase,TIMES,third,BUUUxy,,,,,0,1,1,11,,,,,,space,7.21619134043,4,0,10.482711979,2017_May_12_0908,60.0050608996,KRITL,001,31050,
,,,,,,,,"('TRIPLE', 'INCREASE', 'DIVIDE', 'DOUBLE', 'x', 'y')",increase,4,"(16, 2, 3, 9)",9,9,8,8,DIVIDE,triple,double,UUBUxy,,,,,0,2,2,15,,,,,,space,7.78282246247,9,1,10.3493713431,2017_May_12_0908,60.0050608996,KRITL,001,31050,
,,,,,,,,"('INCREASE', 'DIVIDE', 'x', 'y')",DIVIDE,2,"(4, 5)",5,5,2,8,0,increase,0,UBxy,,,,,0,3,3,3,,,,,,space,2.83325115024,5,1,3.38328070466,2017_May_12_0908,60.0050608996,KRITL,001,31050,
,,,,,,,,"('TRIPLE', 'INCREASE', 'SUBTRACT', 'x', 'y')",increase,3,"(1, 2, 6)",6,6,2,3,SUBTRACT,triple,0,UUBxy,,,,,0,4,4,9,,,,,,space,3.816454303,6,1,2.99999545047,2017_May_12_0908,60.0050608996,KRITL,001,31050,
,,,,,,,,"('INCREASE', 'TIMES', 'TRIPLE', 'HALF', 'x', 'y')",TIMES,4,"(1, 3, 6, 7)",7,7,2,2,triple,increase,half,UBUUxy,,,,,0,5,5,13,,,,,,space,7.43286528051,7,1,5.54972088663,2017_May_12_0908,60.0050608996,KRITL,001,31050,
,,,,,,,,"('ADD', 'HALF', 'x', 'y')",half,2,"(2, 7)",7,7,5,4,0,ADD,0,BUxy,,,,,0,6,6,0,,,,,,space,1.65004071826,7,1,3.7831538779,2017_May_12_0908,60.0050608996,KRITL,001,31050,
,,,,,,,,"('SUBTRACT', 'INCREASE', 'HALF', 'x', 'y')",increase,3,"(4, 5, 3)",3,3,2,8,half,SUBTRACT,0,BUUxy,,,,,0,7,7,5,,,,,,space,4.33309804123,3,1,5.466372884,2017_May_12_0908,60.0050608996,KRITL,001,31050,
,,,,,,,,"('THIRD', 'INCREASE', 'HALF', 'TIMES', 'x', 'y')",increase,4,"(28, 14, 15, 5)",5,5,4,7,half,third,TIMES,UUUBxy,,,,,0,8,8,17,,,,,,space,3.49986298929,5,1,13.0991478039,2017_May_12_0908,60.0050608996,KRITL,001,31050,
,,,,,,,,"('DIVIDE', 'TRIPLE', 'DECREASE', 'x', 'y')",triple,3,"(6, 18, 9)",9,9,2,7,decrease,DIVIDE,0,BUUxy,,,,,0,9,9,4,,,,,,space,4.53305142609,8,0,5.39970764052,2017_May_12_0908,60.0050608996,KRITL,001,31050,
,,,,,,,,"('DOUBLE', 'DIVIDE', 'x', 'y')",DIVIDE,2,"(1, 2)",2,2,8,8,0,double,0,UBxy,,,,,0,10,10,2,,,,,,space,1.60004248557,2,1,1.7333694729,2017_May_12_0908,60.0050608996,KRITL,001,31050,
,,,,,,,,"('TRIPLE', 'HALF', 'ADD', 'x', 'y')",half,3,"(6, 3, 9)",9,9,3,3,ADD,triple,0,UUBxy,,,,,0,11,11,8,,,,,,space,4.39978883203,9,1,3.0666057497,2017_May_12_0908,60.0050608996,KRITL,001,31050,
,,,,,,,,"('INCREASE', 'DIVIDE', 'TRIPLE', 'x', 'y')",DIVIDE,3,"(6, 2, 3)",3,3,3,2,triple,increase,0,UBUxy,,,,,0,12,12,7,,,,,,space,5.78300514341,3,1,3.76654286125,2017_May_12_0908,60.0050608996,KRITL,001,31050,
,,,,,,,,"('SUBTRACT', 'TRIPLE', 'x', 'y')",triple,2,"(12, 9)",9,9,3,4,0,SUBTRACT,0,BUxy,,,,,0,13,13,1,,,,,,space,4.34980984734,9,1,2.46663290686,2017_May_12_0908,60.0050608996,KRITL,001,31050,
,,,,,,,,"('HALF', 'SUBTRACT', 'DECREASE', 'TRIPLE', 'x', 'y')",SUBTRACT,4,"(15, 14, 10, 5)",5,5,4,5,decrease,half,triple,UBUUxy,,,,,0,14,14,12,,,,,,space,4.8330569205,5,1,7.39954035796,2017_May_12_0908,60.0050608996,KRITL,001,31050,
,,,,,,,,"('TRIPLE', 'DOUBLE', 'SUBTRACT', 'INCREASE', 'x', 'y')",double,4,"(5, 1, 2, 6)",6,6,4,4,SUBTRACT,triple,increase,UUBUxy,,,,,0,15,15,14,,,,,,space,5.83302017435,6,1,6.56636584974,2017_May_12_0908,60.0050608996,KRITL,001,31050,
,,,,,,,,"('HALF', 'TIMES', 'DECREASE', 'x', 'y')",TIMES,3,"(8, 16, 8)",8,8,2,9,decrease,half,0,UBUxy,,,,,0,16,16,6,,,,,,space,4.51655554744,8,1,3.9498754305,2017_May_12_0908,60.0050608996,KRITL,001,31050,
,,,,,,,,"('DECREASE', 'THIRD', 'DOUBLE', 'ADD', 'x', 'y')",third,4,"(9, 18, 6, 5)",5,5,4,5,double,decrease,ADD,UUUBxy,,,,,0,17,17,16,,,,,,space,3.51634241967,8,0,13.815706781,2017_May_12_0908,60.0050608996,KRITL,001,31050,
,,,,,,,,"('THIRD', 'DOUBLE', 'ADD', 'INCREASE', 'x', 'y')",double,4,"(10, 12, 24, 8)",8,8,2,9,ADD,third,increase,UUBUxy,,,,,0,0,0,14,,,,,,space,7.16631769475,8,1,12.7323136331,2017_May_12_0908,60.0050608996,KRITL,001,31050,
,,,,,,,,"('THIRD', 'DECREASE', 'TIMES', 'x', 'y')",decrease,3,"(25, 24, 8)",8,8,5,5,TIMES,third,0,UUBxy,,,,,0,1,1,8,,,,,,space,3.23294619207,8,1,7.5829047739,2017_May_12_0908,60.0050608996,KRITL,001,31050,
,,,,,,,,"('THIRD', 'ADD', 'x', 'y')",ADD,2,"(9, 3)",3,3,5,4,0,third,0,UBxy,,,,,0,2,2,2,,,,,,space,1.41665112246,3,1,1.43352426175,2017_May_12_0908,60.0050608996,KRITL,001,31050,
,,,,,,,,"('TIMES', 'INCREASE', 'x', 'y')",increase,2,"(3, 6)",6,6,2,2,0,TIMES,0,BUxy,,,,,0,3,3,1,,,,,,space,1.35005517174,6,1,2.56664162094,2017_May_12_0908,60.0050608996,KRITL,001,31050,
,,,,,,,,"('TIMES', 'INCREASE', 'THIRD', 'DOUBLE', 'x', 'y')",increase,4,"(6, 2, 3, 9)",9,9,3,3,third,TIMES,double,BUUUxy,,,,,0,4,4,11,,,,,,space,4.61640117854,2,0,9.64948182658,2017_May_12_0908,60.0050608996,KRITL,001,31050,
,,,,,,,,"('THIRD', 'TIMES', 'DECREASE', 'x', 'y')",TIMES,3,"(3, 15, 5)",5,5,5,4,decrease,third,0,UBUxy,,,,,0,5,5,7,,,,,,space,2.1332860416,5,1,3.78322072091,2017_May_12_0908,60.0050608996,KRITL,001,31050,
,,,,,,,,"('TRIPLE', 'SUBTRACT', 'DOUBLE', 'DECREASE', 'x', 'y')",SUBTRACT,4,"(2, 4, 1, 3)",3,3,3,3,double,triple,decrease,UBUUxy,,,,,0,6,6,13,,,,,,space,10.3326231408,9,0,9.24942282273,2017_May_12_0908,60.0050608996,KRITL,001,31050,
,,,,,,,,"('TIMES', 'DECREASE', 'HALF', 'x', 'y')",decrease,3,"(4, 3, 9)",9,9,3,8,half,TIMES,0,BUUxy,,,,,0,7,7,4,,,,,,space,3.29992640269,9,1,6.3327869237,2017_May_12_0908,60.0050608996,KRITL,001,31050,
,,,,,,,,"('THIRD', 'SUBTRACT', 'x', 'y')",SUBTRACT,2,"(3, 1)",1,1,2,5,0,third,0,UBxy,,,,,0,8,8,3,,,,,,space,4.0831394244,1,1,1.56676305828,2017_May_12_0908,60.0050608996,KRITL,001,31050,
,,,,,,,,"('TRIPLE', 'HALF', 'ADD', 'DECREASE', 'x', 'y')",half,4,"(1, 4, 2, 6)",6,6,3,2,ADD,triple,decrease,UUBUxy,,,,,0,9,9,15,,,,,,space,5.74962457668,6,1,9.18254935097,2017_May_12_0908,60.0050608996,KRITL,001,31050,
,,,,,,,,"('TRIPLE', 'DECREASE', 'HALF', 'TIMES', 'x', 'y')",decrease,4,"(6, 3, 2, 6)",6,6,2,3,half,triple,TIMES,UUUBxy,,,,,0,10,10,17,,,,,,space,6.38268576673,6,1,7.23287934905,2017_May_12_0908,60.0050608996,KRITL,001,31050,
,,,,,,,,"('THIRD', 'INCREASE', 'HALF', 'DIVIDE', 'x', 'y')",increase,4,"(4, 2, 3, 1)",1,1,2,8,half,third,DIVIDE,UUUBxy,,,,,0,11,11,16,,,,,,space,5.4664225788,1,1,9.19935844695,2017_May_12_0908,60.0050608996,KRITL,001,31050,
,,,,,,,,"('THIRD', 'ADD', 'INCREASE', 'x', 'y')",ADD,3,"(8, 15, 5)",5,5,7,7,increase,third,0,UBUxy,,,,,0,12,12,6,,,,,,space,3.34984029416,5,1,6.69960184654,2017_May_12_0908,60.0050608996,KRITL,001,31050,
,,,,,,,,"('TIMES', 'DECREASE', 'x', 'y')",decrease,2,"(2, 4)",4,4,2,3,0,TIMES,0,BUxy,,,,,0,13,13,0,,,,,,space,3.84982892036,4,1,1.51672178008,2017_May_12_0908,60.0050608996,KRITL,001,31050,
,,,,,,,,"('INCREASE', 'DIVIDE', 'TRIPLE', 'DOUBLE', 'x', 'y')",DIVIDE,4,"(6, 18, 3, 4)",4,4,6,3,triple,increase,double,UBUUxy,,,,,0,14,14,12,,,,,,space,5.66629197243,4,1,9.26613007933,2017_May_12_0908,60.0050608996,KRITL,001,31050,
,,,,,,,,"('TRIPLE', 'HALF', 'DIVIDE', 'x', 'y')",half,3,"(2, 1, 3)",3,3,2,4,DIVIDE,triple,0,UUBxy,,,,,0,15,15,9,,,,,,space,5.01643253527,3,1,5.2997307731,2017_May_12_0908,60.0050608996,KRITL,001,31050,
,,,,,,,,"('TIMES', 'THIRD', 'HALF', 'x', 'y')",third,3,"(3, 1, 5)",5,5,5,6,half,TIMES,0,BUUxy,,,,,0,16,16,5,,,,,,space,5.44964602945,6,0,12.9658302656,2017_May_12_0908,60.0050608996,KRITL,001,31050,
,,,,,,,,"('SUBTRACT', 'HALF', 'INCREASE', 'TRIPLE', 'x', 'y')",half,4,"(15, 16, 8, 3)",3,3,5,5,increase,SUBTRACT,triple,BUUUxy,,,,,0,17,17,10,,,,,,space,3.13318945168,3,1,4.93320631991,2017_May_12_0908,60.0050608996,KRITL,001,31050,
,,,,,,,,"('HALF', 'TIMES', 'x', 'y')",TIMES,2,"(16, 8)",8,8,4,4,0,half,0,UBxy,,,,,0,0,0,3,,,,,,space,4.96646334954,8,1,2.21668163927,2017_May_12_0908,60.0050608996,KRITL,001,31050,
,,,,,,,,"('DIVIDE', 'DOUBLE', 'THIRD', 'x', 'y')",double,3,"(2, 4, 1)",1,1,4,6,third,DIVIDE,0,BUUxy,,,,,0,1,1,4,,,,,,space,4.63313118275,1,1,7.69955985092,2017_May_12_0908,60.0050608996,KRITL,001,31050,
,,,,,,,,"('DIVIDE', 'DOUBLE', 'x', 'y')",double,2,"(12, 2)",2,2,6,6,0,DIVIDE,0,BUxy,,,,,0,2,2,1,,,,,,space,1.94999686781,2,1,3.56630775578,2017_May_12_0908,60.0050608996,KRITL,001,31050,
,,,,,,,,"('HALF', 'SUBTRACT', 'TRIPLE', 'x', 'y')",SUBTRACT,3,"(9, 2, 1)",1,1,7,3,triple,half,0,UBUxy,,,,,0,3,3,6,,,,,,space,3.93319267135,1,1,4.19988094243,2017_May_12_0908,60.0050608996,KRITL,001,31050,
,,,,,,,,"('ADD', 'THIRD', 'INCREASE', 'HALF', 'x', 'y')",third,4,"(2, 3, 1, 7)",7,7,6,4,increase,ADD,half,BUUUxy,,,,,0,4,4,10,,,,,,space,9.56600153775,7,1,10.6492627494,2017_May_12_0908,60.0050608996,KRITL,001,31050,
,,,,,,,,"('INCREASE', 'DIVIDE', 'THIRD', 'x', 'y')",DIVIDE,3,"(3, 1, 2)",2,2,3,9,third,increase,0,UBUxy,,,,,0,5,5,7,,,,,,space,1.68334849257,2,1,6.73297996355,2017_May_12_0908,60.0050608996,KRITL,001,31050,
,,,,,,,,"('DECREASE', 'THIRD', 'TIMES', 'HALF', 'x', 'y')",third,4,"(2, 12, 4, 3)",3,3,6,4,TIMES,decrease,half,UUBUxy,,,,,0,6,6,14,,,,,,space,6.03354364971,5,0,6.0830214867,2017_May_12_0908,60.0050608996,KRITL,001,31050,
,,,,,,,,"('DECREASE', 'TIMES', 'DOUBLE', 'THIRD', 'x', 'y')",TIMES,4,"(1, 2, 8, 7)",7,7,4,3,double,decrease,third,UBUUxy,,,,,0,7,7,13,,,,,,space,5.0664101201,7,1,6.81633916502,2017_May_12_0908,60.0050608996,KRITL,001,31050,
,,,,,,,,"('DOUBLE', 'DECREASE', 'TRIPLE', 'DIVIDE', 'x', 'y')",decrease,4,"(1, 3, 2, 4)",4,4,4,4,triple,double,DIVIDE,UUUBxy,,,,,0,8,8,17,,,,,,space,5.79945552682,4,1,7.74953463607,2017_May_12_0908,60.0050608996,KRITL,001,31050,
,,,,,,,,"('DIVIDE', 'INCREASE', 'DOUBLE', 'THIRD', 'x', 'y')",increase,4,"(2, 4, 5, 1)",1,1,5,6,double,DIVIDE,third,BUUUxy,,,,,0,9,9,11,,,,,,space,5.66636476484,1,1,8.8161494848,2017_May_12_0908,60.0050608996,KRITL,001,31050,
,,,,,,,,"('DOUBLE', 'TRIPLE', 'DIVIDE', 'DECREASE', 'x', 'y')",triple,4,"(8, 1, 3, 6)",6,6,8,9,DIVIDE,double,decrease,UUBUxy,,,,,0,10,10,15,,,,,,space,6.59959068272,6,1,9.5161121437,2017_May_12_0908,60.0050608996,KRITL,001,31050,
,,,,,,,,"('DOUBLE', 'SUBTRACT', 'x', 'y')",SUBTRACT,2,"(1, 2)",2,2,7,8,0,double,0,UBxy,,,,,0,11,11,2,,,,,,space,6.19967551385,2,1,1.68341463567,2017_May_12_0908,60.0050608996,KRITL,001,31050,
,,,,,,,,"('DECREASE', 'HALF', 'TRIPLE', 'DIVIDE', 'x', 'y')",half,4,"(4, 12, 6, 5)",5,5,2,8,triple,decrease,DIVIDE,UUUBxy,,,,,0,12,12,16,,,,,,space,3.53329150104,5,1,5.7163556483,2017_May_12_0908,60.0050608996,KRITL,001,31050,
,,,,,,,,"('DOUBLE', 'DECREASE', 'SUBTRACT', 'x', 'y')",decrease,3,"(5, 4, 8)",8,8,2,7,SUBTRACT,double,0,UUBxy,,,,,0,13,13,8,,,,,,space,3.01660541722,8,1,4.03319123649,2017_May_12_0908,60.0050608996,KRITL,001,31050,
,,,,,,,,"('DOUBLE', 'TRIPLE', 'SUBTRACT', 'x', 'y')",triple,3,"(1, 3, 6)",6,6,3,4,SUBTRACT,double,0,UUBxy,,,,,0,14,14,9,,,,,,space,2.399971163,6,1,3.79998152194,2017_May_12_0908,60.0050608996,KRITL,001,31050,
,,,,,,,,"('ADD', 'DOUBLE', 'x', 'y')",double,2,"(4, 8)",8,8,4,2,0,ADD,0,BUxy,,,,,0,15,15,0,,,,,,space,2.21662319536,8,1,2.48347139976,2017_May_12_0908,60.0050608996,KRITL,001,31050,
,,,,,,,,"('DECREASE', 'ADD', 'DOUBLE', 'THIRD', 'x', 'y')",ADD,4,"(3, 6, 10, 9)",9,9,4,9,double,decrease ,third,UBUUxy,,,,,0,16,16,12,,,,,,space,11.7662317437,6,0,9.21536892625,2017_May_12_0908,60.0050608996,KRITL,001,31050,
,,,,,,,,"('SUBTRACT', 'HALF', 'TRIPLE', 'x', 'y')",half,3,"(12, 6, 2)",2,2,4,4,triple,SUBTRACT,0,BUUxy,,,,,0,17,17,5,,,,,,space,3.03301240515,2,1,6.38298778523,2017_May_12_0908,60.0050608996,KRITL,001,31050,
,,,,,,,,"('DIVIDE', 'DECREASE', 'x', 'y')",decrease,2,"(8, 2)",2,2,4,9,0,DIVIDE,0,BUxy,,,,,0,0,0,1,,,,,,space,3.2801716641,4,0,3.33323592682,2017_May_12_0908,60.0050608996,KRITL,001,31050,
,,,,,,,,"('ADD', 'DECREASE', 'THIRD', 'DOUBLE', 'x', 'y')",decrease,4,"(18, 6, 5, 9)",9,9,4,9,third,ADD,double,BUUUxy,,,,,0,1,1,10,,,,,,space,4.94976274225,9,1,9.04942359265,2017_May_12_0908,60.0050608996,KRITL,001,31050,
,,,,,,,,"('ADD', 'TRIPLE', 'DOUBLE', 'DECREASE', 'x', 'y')",triple,4,"(1, 2, 6, 8)",8,8,2,2,double,ADD,decrease,BUUUxy,,,,,0,2,2,11,,,,,,space,3.21649265899,8,1,5.33308369271,2017_May_12_0908,60.0050608996,KRITL,001,31050,
,,,,,,,,"('DOUBLE', 'SUBTRACT', 'INCREASE', 'x', 'y')",SUBTRACT,3,"(4, 1, 2)",2,2,3,3,increase,double,0,UBUxy,,,,,0,3,3,6,,,,,,space,2.90003923091,2,1,4.41650378783,2017_May_12_0908,60.0050608996,KRITL,001,31050,
,,,,,,,,"('INCREASE', 'ADD', 'HALF', 'x', 'y')",ADD,3,"(1, 4, 5)",5,5,3,2,half,increase,0,UBUxy,,,,,0,4,4,7,,,,,,space,4.39978953196,5,1,2.64997352526,2017_May_12_0908,60.0050608996,KRITL,001,31050,
,,,,,,,,"('ADD', 'TRIPLE', 'HALF', 'x', 'y')",triple,3,"(2, 6, 8)",8,8,2,4,half,ADD,0,BUUxy,,,,,0,5,5,5,,,,,,space,3.79982298847,8,1,6.56620626638,2017_May_12_0908,60.0050608996,KRITL,001,31050,
,,,,,,,,"('HALF', 'INCREASE', 'TIMES', 'x', 'y')",increase,3,"(9, 10, 5)",5,5,3,3,TIMES,half,0,UUBxy,,,,,0,6,6,9,,,,,,space,4.88308035057,5,1,3.71659327349,2017_May_12_0908,60.0050608996,KRITL,001,31050,
,,,,,,,,"('DECREASE', 'SUBTRACT', 'DOUBLE', 'THIRD', 'x', 'y')",SUBTRACT,4,"(3, 6, 4, 3)",3,3,2,9,double,decrease,third,UBUUxy,,,,,0,7,7,13,,,,,,space,2.89996328883,5,0,8.43260140804,2017_May_12_0908,60.0050608996,KRITL,001,31050,
,,,,,,,,"('DECREASE', 'TIMES', 'x', 'y')",TIMES,2,"(9, 8)",8,8,3,3,0,decrease,0,UBxy,,,,,0,8,8,2,,,,,,space,1.21670228711,8,1,1.13345227425,2017_May_12_0908,60.0050608996,KRITL,001,31050,
,,,,,,,,"('DECREASE', 'DOUBLE', 'TIMES', 'THIRD', 'x', 'y')",double,4,"(1, 3, 6, 5)",5,5,3,3,TIMES,decrease,third,UUBUxy,,,,,0,9,9,14,,,,,,space,3.64981569174,5,1,6.1497430743,2017_May_12_0908,60.0050608996,KRITL,001,31050,
,,,,,,,,"('THIRD', 'HALF', 'INCREASE', 'SUBTRACT', 'x', 'y')",half,4,"(5, 6, 3, 1)",1,1,2,7,increase,third,SUBTRACT,UUUBxy,,,,,0,10,10,17,,,,,,space,6.78292185211,1,1,5.5997450166,2017_May_12_0908,60.0050608996,KRITL,001,31050,
,,,,,,,,"('DOUBLE', 'THIRD', 'ADD', 'x', 'y')",third,3,"(9, 3, 6)",6,6,4,5,ADD,double,0,UUBxy,,,,,0,11,11,8,,,,,,space,3.99945510685,6,1,10.4155791843,2017_May_12_0908,60.0050608996,KRITL,001,31050,
,,,,,,,,"('HALF', 'ADD', 'x', 'y')",ADD,2,"(12, 6)",6,6,8,4,0,half,0,UBxy,,,,,0,12,12,3,,,,,,space,1.15010563648,6,1,1.5401878814,2017_May_12_0908,60.0050608996,KRITL,001,31050,
,,,,,,,,"('ADD', 'DOUBLE', 'DECREASE', 'x', 'y')",double,3,"(1, 2, 7)",7,7,5,2,decrease,ADD,0,BUUxy,,,,,0,13,13,4,,,,,,space,2.02915545764,7,1,6.2831316552,2017_May_12_0908,60.0050608996,KRITL,001,31050,
,,,,,,,,"('DECREASE', 'ADD', 'THIRD', 'HALF', 'x', 'y')",ADD,4,"(3, 1, 7, 6)",6,6,6,6,third,decrease,half,UBUUxy,,,,,0,14,14,12,,,,,,space,5.13307466365,6,1,7.93291690013,2017_May_12_0908,60.0050608996,KRITL,001,31050,
,,,,,,,,"('ADD', 'DECREASE', 'x', 'y')",decrease,2,"(2, 7)",7,7,5,3,0,ADD,0,BUxy,,,,,0,15,15,0,,,,,,space,1.58335727667,7,1,1.43344971952,2017_May_12_0908,60.0050608996,KRITL,001,31050,
,,,,,,,,"('INCREASE', 'HALF', 'THIRD', 'TIMES', 'x', 'y')",half,4,"(12, 4, 2, 3)",3,3,4,3,third,increase,TIMES,UUUBxy,,,,,0,16,16,16,,,,,,space,6.54959489977,3,1,8.09960660605,2017_May_12_0908,60.0050608996,KRITL,001,31050,
,,,,,,,,"('DECREASE', 'TRIPLE', 'SUBTRACT', 'DOUBLE', 'x', 'y')",triple,4,"(6, 3, 9, 8)",8,8,3,3,SUBTRACT,decrease,double,UUBUxy,,,,,0,17,17,15,,,,,,space,5.99947120518,1,0,11.4158962512,2017_May_12_0908,60.0050608996,KRITL,001,31050,
,,,,,,,,"('THIRD', 'DECREASE', 'TIMES', 'HALF', 'x', 'y')",decrease,4,"(4, 16, 15, 5)",5,5,4,8,TIMES,third,half,UUBUxy,,,,,0,0,0,15,,,,,,space,3.04990654226,5,1,6.06648256254,2017_May_12_0908,60.0050608996,KRITL,001,31050,
,,,,,,,,"('DOUBLE', 'THIRD', 'TIMES', 'x', 'y')",third,3,"(12, 4, 8)",8,8,6,2,TIMES,double,0,UUBxy,,,,,0,1,1,9,,,,,,space,5.39977343364,8,1,7.19960167156,2017_May_12_0908,60.0050608996,KRITL,001,31050,
,,,,,,,,"('SUBTRACT', 'TRIPLE', 'DECREASE', 'x', 'y')",triple,3,"(4, 12, 3)",3,3,9,5,decrease,SUBTRACT,0,BUUxy,,,,,0,2,2,4,,,,,,space,2.31619200537,3,1,7.69960534618,2017_May_12_0908,60.0050608996,KRITL,001,31050,
,,,,,,,,"('DECREASE', 'TRIPLE', 'DIVIDE', 'DOUBLE', 'x', 'y')",triple,4,"(6, 2, 6, 5)",5,5,3,3,DIVIDE,decrease,double,UUBUxy,,,,,0,3,3,14,,,,,,space,7.14957579177,3,0,10.9324283511,2017_May_12_0908,60.0050608996,KRITL,001,31050,
,,,,,,,,"('HALF', 'TRIPLE', 'INCREASE', 'SUBTRACT', 'x', 'y')",triple,4,"(1, 2, 6, 3)",3,3,2,3,increase,half,SUBTRACT,UUUBxy,,,,,0,4,4,17,,,,,,space,6.7996060111,3,1,5.4498045629,2017_May_12_0908,60.0050608996,KRITL,001,31050,
,,,,,,,,"('SUBTRACT', 'DOUBLE', 'TRIPLE', 'DECREASE', 'x', 'y')",double,4,"(2, 6, 12, 8)",8,8,4,3,triple,SUBTRACT,decrease,BUUUxy,,,,,0,5,5,10,,,,,,space,8.46609361313,2,0,10.4826878315,2017_May_12_0908,60.0050608996,KRITL,001,31050,
,,,,,,,,"('DIVIDE', 'THIRD', 'x', 'y')",third,2,"(3, 1)",1,1,3,9,0,DIVIDE,0,BUxy,,,,,0,6,6,0,,,,,,space,1.81667722973,1,1,3.58324913796,2017_May_12_0908,60.0050608996,KRITL,001,31050,
,,,,,,,,"('SUBTRACT', 'TRIPLE', 'DECREASE', 'DOUBLE', 'x', 'y')",triple,4,"(4, 3, 9, 1)",1,1,8,2,decrease,SUBTRACT,double,BUUUxy,,,,,0,7,7,11,,,,,,space,3.86655332516,1,1,7.38287614688,2017_May_12_0908,60.0050608996,KRITL,001,31050,
,,,,,,,,"('INCREASE', 'SUBTRACT', 'x', 'y')",SUBTRACT,2,"(3, 4)",4,4,3,6,0,increase,0,UBxy,,,,,0,8,8,2,,,,,,space,1.73336807304,4,1,1.08346559037,2017_May_12_0908,60.0050608996,KRITL,001,31050,
,,,,,,,,"('DECREASE', 'TRIPLE', 'HALF', 'SUBTRACT', 'x', 'y')",triple,4,"(4, 2, 6, 5)",5,5,2,6,half,decrease,SUBTRACT,UUUBxy,,,,,0,9,9,16,,,,,,space,2.69995810938,5,1,8.44961733243,2017_May_12_0908,60.0050608996,KRITL,001,31050,
,,,,,,,,"('THIRD', 'TIMES', 'HALF', 'x', 'y')",TIMES,3,"(3, 18, 6)",6,6,6,6,half,third,0,UBUxy,,,,,0,10,10,7,,,,,,space,4.13312295862,6,1,4.16654062149,2017_May_12_0908,60.0050608996,KRITL,001,31050,
,,,,,,,,"('TIMES', 'HALF', 'INCREASE', 'x', 'y')",half,3,"(6, 3, 9)",9,9,3,5,increase,TIMES,0,BUUxy,,,,,0,11,11,5,,,,,,space,6.99960874082,9,1,7.09961255542,2017_May_12_0908,60.0050608996,KRITL,001,31050,
,,,,,,,,"('INCREASE', 'ADD', 'HALF', 'TRIPLE', 'x', 'y')",ADD,4,"(6, 3, 6, 7)",7,7,3,2,half,increase,triple,UBUUxy,,,,,0,12,12,13,,,,,,space,5.93299914154,5,0,9.26622246968,2017_May_12_0908,60.0050608996,KRITL,001,31050,
,,,,,,,,"('DOUBLE', 'DECREASE', 'ADD', 'x', 'y')",decrease,3,"(4, 3, 6)",6,6,2,2,ADD,double,0,UUBxy,,,,,0,13,13,8,,,,,,space,6.09946802052,6,1,7.41625216408,2017_May_12_0908,60.0050608996,KRITL,001,31050,
,,,,,,,,"('DOUBLE', 'DIVIDE', 'TRIPLE', 'INCREASE', 'x', 'y')",DIVIDE,4,"(5, 15, 3, 6)",6,6,5,4,triple,double,increase,UBUUxy,,,,,0,14,14,12,,,,,,space,6.88290956839,5,0,10.520469889,2017_May_12_0908,60.0050608996,KRITL,001,31050,
,,,,,,,,"('THIRD', 'DIVIDE', 'DECREASE', 'x', 'y')",DIVIDE,3,"(6, 3, 1)",1,1,2,7,decrease,third,0,UBUxy,,,,,0,15,15,6,,,,,,space,2.28313725462,9,0,6.76631363516,2017_May_12_0908,60.0050608996,KRITL,001,31050,
,,,,,,,,"('TIMES', 'DOUBLE', 'x', 'y')",double,2,"(4, 8)",8,8,2,2,0,TIMES,0,BUxy,,,,,0,16,16,1,,,,,,space,2.75018241847,8,1,2.33331991806,2017_May_12_0908,60.0050608996,KRITL,001,31050,
,,,,,,,,"('THIRD', 'DIVIDE', 'x', 'y')",DIVIDE,2,"(3, 1)",1,1,2,6,0,third,0,UBxy,,,,,0,17,17,3,,,,,,space,1.65000887158,1,1,2.16664281081,2017_May_12_0908,60.0050608996,KRITL,001,31050,
,,,,,,,,"('THIRD', 'INCREASE', 'SUBTRACT', 'HALF', 'x', 'y')",increase,4,"(4, 2, 3, 1)",1,1,2,8,SUBTRACT,third,half,UUBUxy,,,,,0,0,0,15,,,,,,space,1.94810321543,4,0,0.333529196228,2017_May_12_0908,60.0050608996,KRITL,001,31050,
,,,,,,,,"('INCREASE', 'TRIPLE', 'HALF', 'ADD', 'x', 'y')",triple,4,"(4, 2, 6, 7)",7,7,2,2,half,increase,ADD,UUUBxy,,,,,0,1,1,17,,,,,,space,3.93295294636,6,0,0.650059966239,2017_May_12_0908,60.0050608996,KRITL,001,31050,
,,,,,,,,"('TRIPLE', 'SUBTRACT', 'INCREASE', 'HALF', 'x', 'y')",SUBTRACT,4,"(3, 4, 1, 3)",3,3,3,6,increase,triple,half,UBUUxy,,,,,0,2,2,13,,,,,,space,0.333344765473,1,0,0.366919911918,2017_May_12_0908,60.0050608996,KRITL,001,31050,
,,,,,,,,"('TRIPLE', 'HALF', 'TIMES', 'x', 'y')",half,3,"(6, 3, 9)",9,9,3,2,TIMES,triple,0,UUBxy,,,,,0,3,3,9,,,,,,space,5.91629608451,9,1,3.04988029499,2017_May_12_0908,60.0050608996,KRITL,001,31050,
,,,,,,,,"('SUBTRACT', 'DOUBLE', 'DECREASE', 'x', 'y')",double,3,"(8, 16, 7)",7,7,9,9,decrease,SUBTRACT,0,BUUxy,,,,,0,4,4,5,,,,,,space,4.5975888916,2,0,3.38332480006,2017_May_12_0908,60.0050608996,KRITL,001,31050,
,,,,,,,,"('ADD', 'DECREASE', 'HALF', 'x', 'y')",decrease,3,"(3, 2, 6)",6,6,4,6,half,ADD,0,BUUxy,,,,,0,5,5,4,,,,,,space,3.93316642407,6,1,7.83037235065,2017_May_12_0908,60.0050608996,KRITL,001,31050,
,,,,,,,,"('TIMES', 'THIRD', 'x', 'y')",third,2,"(1, 4)",4,4,4,3,0,TIMES,0,BUxy,,,,,0,6,6,1,,,,,,space,1.05011057097,4,1,2.06664109601,2017_May_12_0908,60.0050608996,KRITL,001,31050,
,,,,,,,,"('DECREASE', 'DIVIDE', 'TRIPLE', 'DOUBLE', 'x', 'y')",DIVIDE,4,"(6, 18, 2, 1)",1,1,9,3,triple,decrease,double,UBUUxy,,,,,0,7,7,12,,,,,,space,6.73284487764,1,1,6.13304351691,2017_May_12_0908,60.0050608996,KRITL,001,31050,
,,,,,,,,"('INCREASE', 'HALF', 'TIMES', 'TRIPLE', 'x', 'y')",half,4,"(6, 12, 6, 7)",7,7,2,2,TIMES,increase,triple,UUBUxy,,,,,0,8,8,14,,,,,,space,0.650099512102,4,0,0.802178942628,2017_May_12_0908,60.0050608996,KRITL,001,31050,
,,,,,,,,"('INCREASE', 'DIVIDE', 'HALF', 'x', 'y')",DIVIDE,3,"(2, 1, 2)",2,2,2,4,half,increase,0,UBUxy,,,,,0,9,9,7,,,,,,space,1.63344544997,2,1,3.49987488805,2017_May_12_0908,60.0050608996,KRITL,001,31050,
,,,,,,,,"('DOUBLE', 'TIMES', 'THIRD', 'x', 'y')",TIMES,3,"(1, 4, 8)",8,8,4,3,third,double,0,UBUxy,,,,,0,10,10,6,,,,,,space,5.21648286002,8,1,4.08212068072,2017_May_12_0908,60.0050608996,KRITL,001,31050,
,,,,,,,,"('INCREASE', 'TIMES', 'x', 'y')",TIMES,2,"(8, 9)",9,9,4,2,0,increase,0,UBxy,,,,,0,11,11,2,,,,,,space,1.03348555579,9,1,1.65019085258,2017_May_12_0908,60.0050608996,KRITL,001,31050,
,,,,,,,,"('TIMES', 'DECREASE', 'THIRD', 'DOUBLE', 'x', 'y')",decrease,4,"(6, 2, 1, 2)",2,2,2,3,third,TIMES,double,BUUUxy,,,,,0,12,12,11,,,,,,space,3.98314435889,2,1,6.84994615812,2017_May_12_0908,60.0050608996,KRITL,001,31050,
,,,,,,,,"('SUBTRACT', 'THIRD', 'x', 'y')",third,2,"(3, 1)",1,1,2,9,0,SUBTRACT,0,BUxy,,,,,0,13,13,0,,,,,,space,0.833398484858,1,1,1.66671227859,2017_May_12_0908,60.0050608996,KRITL,001,31050,
,,,,,,,,"('DECREASE', 'HALF', 'TRIPLE', 'ADD', 'x', 'y')",half,4,"(4, 12, 6, 5)",5,5,2,2,triple,decrease,ADD,UUUBxy,,,,,0,14,14,16,,,,,,space,2.29986970859,5,1,4.31650837234,2017_May_12_0908,60.0050608996,KRITL,001,31050,
,,,,,,,,"('DIVIDE', 'DECREASE', 'THIRD', 'DOUBLE', 'x', 'y')",decrease,4,"(12, 4, 3, 1)",1,1,3,6,third,DIVIDE,double,BUUUxy,,,,,0,15,15,10,,,,,,space,7.24962615152,1,1,4.04980365299,2017_May_12_0908,60.0050608996,KRITL,001,31050,
,,,,,,,,"('DECREASE', 'HALF', 'DIVIDE', 'x', 'y')",half,3,"(4, 2, 1)",1,1,2,8,DIVIDE,decrease,0,UUBxy,,,,,0,16,16,8,,,,,,space,3.84986041706,1,1,2.53348083128,2017_May_12_0908,60.0050608996,KRITL,001,31050,
,,,,,,,,"('TRIPLE', 'SUBTRACT', 'x', 'y')",SUBTRACT,2,"(2, 6)",6,6,6,8,0,triple,0,UBxy,,,,,0,17,17,3,,,,,,space,0.833506973548,5,0,2.23342284233,2017_May_12_0908,60.0050608996,KRITL,001,31050,
,,,,,,,,"('THIRD', 'INCREASE', 'ADD', 'DOUBLE', 'x', 'y')",increase,4,"(16, 20, 21, 7)",7,7,4,8,ADD,third,double,UUBUxy,,,,,0,0,0,14,,,,,,space,3.33312498841,6,0,0.350331292939,2017_May_12_0908,60.0050608996,KRITL,001,31050,
,,,,,,,,"('TIMES', 'THIRD', 'DOUBLE', 'x', 'y')",third,3,"(6, 2, 4)",4,4,2,3,double,TIMES,0,BUUxy,,,,,0,1,1,5,,,,,,space,0.899996185399,2,0,0.30014442993,2017_May_12_0908,60.0050608996,KRITL,001,31050,
,,,,,,,,"('INCREASE', 'SUBTRACT', 'THIRD', 'x', 'y')",SUBTRACT,3,"(3, 1, 2)",2,2,2,9,third,increase,0,UBUxy,,,,,0,2,2,7,,,,,,space,0.466861433015,8,0,0.233500184244,2017_May_12_0908,60.0050608996,KRITL,001,31050,
,,,,,,,,"('THIRD', 'INCREASE', 'SUBTRACT', 'x', 'y')",increase,3,"(2, 3, 1)",1,1,6,8,SUBTRACT,third,0,UUBxy,,,,,0,3,3,9,,,,,,space,1.20018261095,1,1,4.33295560608,2017_May_12_0908,60.0050608996,KRITL,001,31050,
,,,,,,,,"('DIVIDE', 'DOUBLE', 'INCREASE', 'THIRD', 'x', 'y')",double,4,"(2, 3, 6, 2)",2,2,3,6,increase,DIVIDE,third,BUUUxy,,,,,0,4,4,10,,,,,,space,0.783487743043,5,0,0.966691175781,2017_May_12_0908,60.0050608996,KRITL,001,31050,
,,,,,,,,"('INCREASE', 'ADD', 'TRIPLE', 'x', 'y')",ADD,3,"(6, 8, 9)",9,9,2,2,triple,increase,0,UBUxy,,,,,0,5,5,6,,,,,,space,1.18350195157,9,1,6.3828233024,2017_May_12_0908,60.0050608996,KRITL,001,31050,
,,,,,,,,"('SUBTRACT', 'INCREASE', 'x', 'y')",increase,2,"(6, 2)",2,2,4,5,0,SUBTRACT,0,BUxy,,,,,0,6,6,1,,,,,,space,1.51669518286,2,1,1.85010609144,2017_May_12_0908,60.0050608996,KRITL,001,31050,
,,,,,,,,"('TRIPLE', 'DOUBLE', 'SUBTRACT', 'DECREASE', 'x', 'y')",double,4,"(4, 1, 2, 6)",6,6,3,5,SUBTRACT,triple,decrease,UUBUxy,,,,,0,7,7,15,,,,,,space,2.71639659403,6,1,4.68341498564,2017_May_12_0908,60.0050608996,KRITL,001,31050,
,,,,,,,,"('DOUBLE', 'ADD', 'x', 'y')",ADD,2,"(4, 8)",8,8,2,2,0,double,0,UBxy,,,,,0,8,8,2,,,,,,space,0.800288089944,8,1,1.93348419091,2017_May_12_0908,60.0050608996,KRITL,001,31050,
,,,,,,,,"('INCREASE', 'DIVIDE', 'TRIPLE', 'HALF', 'x', 'y')",DIVIDE,4,"(2, 6, 2, 3)",3,3,3,4,triple,increase,half,UBUUxy,,,,,0,9,9,12,,,,,,space,2.11667887456,3,1,6.76621144584,2017_May_12_0908,60.0050608996,KRITL,001,31050,
,,,,,,,,"('DECREASE', 'TRIPLE', 'HALF', 'ADD', 'x', 'y')",triple,4,"(6, 3, 9, 8)",8,8,2,4,half,decrease,ADD,UUUBxy,,,,,0,10,10,16,,,,,,space,2.11674011817,8,1,5.8163622626,2017_May_12_0908,60.0050608996,KRITL,001,31050,
,,,,,,,,"('DECREASE', 'TRIPLE', 'DIVIDE', 'x', 'y')",triple,3,"(2, 6, 5)",5,5,4,8,DIVIDE,decrease,0,UUBxy,,,,,0,11,11,8,,,,,,space,2.98330709191,5,1,3.51649360389,2017_May_12_0908,60.0050608996,KRITL,001,31050,
,,,,,,,,"('ADD', 'THIRD', 'x', 'y')",third,2,"(1, 7)",7,7,6,3,0,ADD,0,BUxy,,,,,0,12,12,0,,,,,,space,1.01675730138,7,1,1.95015085176,2017_May_12_0908,60.0050608996,KRITL,001,31050,
,,,,,,,,"('THIRD', 'TIMES', 'HALF', 'INCREASE', 'x', 'y')",TIMES,4,"(8, 4, 12, 4)",4,4,3,7,half,third,increase,UBUUxy,,,,,0,13,13,13,,,,,,space,3.6665624942,4,1,5.31638448528,2017_May_12_0908,60.0050608996,KRITL,001,31050,
,,,,,,,,"('TRIPLE', 'DECREASE', 'HALF', 'SUBTRACT', 'x', 'y')",decrease,4,"(4, 2, 1, 3)",3,3,5,9,half,triple,SUBTRACT,UUUBxy,,,,,0,14,14,17,,,,,,space,6.68348112874,3,1,4.93315697508,2017_May_12_0908,60.0050608996,KRITL,001,31050,
,,,,,,,,"('DOUBLE', 'TIMES', 'x', 'y')",TIMES,2,"(4, 8)",8,8,2,2,0,double,0,UBxy,,,,,0,15,15,3,,,,,,space,3.35004257306,8,1,2.68305172355,2017_May_12_0908,60.0050608996,KRITL,001,31050,
,,,,,,,,"('DIVIDE', 'TRIPLE', 'HALF', 'x', 'y')",triple,3,"(4, 12, 4)",4,4,3,8,half,DIVIDE,0,BUUxy,,,,,0,16,16,4,,,,,,space,2.21664244335,4,1,3.26663332681,2017_May_12_0908,60.0050608996,KRITL,001,31050,
,,,,,,,,"('TIMES', 'INCREASE', 'HALF', 'TRIPLE', 'x', 'y')",increase,4,"(6, 3, 4, 8)",8,8,2,2,half,TIMES,triple,BUUUxy,,,,,0,17,17,11,,,,,,space,2.53342413719,3,0,7.06624528731,2017_May_12_0908,60.0050608996,KRITL,001,31050,
